"","date","time","subject","blockcode","blocknum_and_trialnum","trialcode","primestim","targetstim","correct","latency","exclude_based_on_trial_count"
"1","23.06.22",10:46:38,548957868,"test","2_1","instructions",0,0,1,3313,"exclude"
"2","23.06.22",11:55:36,504546409,"test","2_2","prime_positive",1,61,0,161,"exclude"
"3","23.06.22",11:55:36,504546409,"test","2_3","prime_positive",2,4,0,328,"exclude"
"4","23.06.22",11:55:36,504546409,"test","2_4","prime_positive",4,54,1,220,"exclude"
"5","23.06.22",11:55:36,504546409,"test","2_5","prime_negative",1,33,1,308,"exclude"
"6","23.06.22",11:55:36,504546409,"test","2_6","prime_negative",3,71,1,235,"exclude"
"7","23.06.22",11:55:36,504546409,"test","2_7","prime_negative",4,37,1,224,"exclude"
"8","23.06.22",11:55:36,504546409,"test","2_8","prime_negative",2,19,0,369,"exclude"
"9","23.06.22",11:55:36,504546409,"test","2_9","prime_positive",4,56,1,1105,"exclude"
"10","23.06.22",12:37:27,893377996,"test","2_1","instructions",0,0,1,241,"exclude"
"11","23.06.22",12:23:51,994692692,"test","2_2","prime_positive",1,23,0,1611,"include"
"12","23.06.22",12:23:51,994692692,"test","2_3","prime_negative",3,33,0,627,"include"
"13","23.06.22",12:23:51,994692692,"test","2_4","prime_negative",4,21,1,865,"include"
"14","23.06.22",12:23:51,994692692,"test","2_5","prime_negative",1,60,1,766,"include"
"15","23.06.22",12:23:51,994692692,"test","2_6","prime_positive",2,30,0,582,"include"
"16","23.06.22",12:23:51,994692692,"test","2_7","prime_negative",1,16,0,495,"include"
"17","23.06.22",12:23:51,994692692,"test","2_8","prime_negative",4,61,1,869,"include"
"18","23.06.22",12:23:51,994692692,"test","2_9","prime_positive",3,24,0,699,"include"
"19","23.06.22",12:23:51,994692692,"test","2_10","prime_positive",3,11,1,971,"include"
"20","23.06.22",12:23:51,994692692,"test","2_11","prime_negative",2,56,0,588,"include"
"21","23.06.22",12:23:51,994692692,"test","2_12","prime_negative",3,28,0,587,"include"
"22","23.06.22",12:23:51,994692692,"test","2_13","prime_negative",4,68,1,615,"include"
"23","23.06.22",12:23:51,994692692,"test","2_14","prime_positive",4,38,1,804,"include"
"24","23.06.22",12:23:51,994692692,"test","2_15","prime_negative",3,6,0,297,"include"
"25","23.06.22",12:23:51,994692692,"test","2_16","prime_negative",1,39,0,587,"include"
"26","23.06.22",12:23:51,994692692,"test","2_17","prime_negative",2,66,0,617,"include"
"27","23.06.22",12:23:51,994692692,"test","2_18","prime_positive",1,53,1,536,"include"
"28","23.06.22",12:23:51,994692692,"test","2_19","prime_positive",2,46,1,684,"include"
"29","23.06.22",12:23:51,994692692,"test","2_20","prime_negative",2,70,0,515,"include"
"30","23.06.22",12:23:51,994692692,"test","2_21","prime_negative",3,55,0,448,"include"
"31","23.06.22",12:23:51,994692692,"test","2_22","prime_negative",4,59,1,490,"include"
"32","23.06.22",12:23:51,994692692,"test","2_23","prime_positive",3,3,1,628,"include"
"33","23.06.22",12:23:51,994692692,"test","2_24","prime_negative",1,13,0,421,"include"
"34","23.06.22",12:23:51,994692692,"test","2_25","prime_positive",1,12,1,470,"include"
"35","23.06.22",12:23:51,994692692,"test","2_26","prime_negative",2,45,1,733,"include"
"36","23.06.22",12:23:51,994692692,"test","2_27","prime_positive",4,18,1,547,"include"
"37","23.06.22",12:23:51,994692692,"test","2_28","prime_positive",2,19,1,503,"include"
"38","23.06.22",12:23:51,994692692,"test","2_29","prime_negative",1,31,0,487,"include"
"39","23.06.22",12:23:51,994692692,"test","2_30","prime_positive",3,15,1,347,"include"
"40","23.06.22",12:23:51,994692692,"test","2_31","prime_negative",4,62,1,1008,"include"
"41","23.06.22",12:23:51,994692692,"test","2_32","prime_negative",3,29,0,316,"include"
"42","23.06.22",12:23:51,994692692,"test","2_33","prime_positive",4,48,1,492,"include"
"43","23.06.22",12:23:51,994692692,"test","2_34","prime_positive",2,69,1,492,"include"
"44","23.06.22",12:23:51,994692692,"test","2_35","prime_negative",4,57,0,533,"include"
"45","23.06.22",12:23:51,994692692,"test","2_36","prime_negative",1,35,0,443,"include"
"46","23.06.22",12:23:51,994692692,"test","2_37","prime_positive",1,14,1,545,"include"
"47","23.06.22",12:23:51,994692692,"test","2_38","prime_negative",2,2,1,848,"include"
"48","23.06.22",12:23:51,994692692,"test","2_39","prime_negative",3,52,0,408,"include"
"49","23.06.22",12:23:51,994692692,"test","2_40","prime_positive",2,51,1,546,"include"
"50","23.06.22",12:23:51,994692692,"test","2_41","prime_positive",1,41,1,508,"include"
"51","23.06.22",12:23:51,994692692,"test","2_42","prime_negative",4,72,0,654,"include"
"52","23.06.22",12:23:51,994692692,"test","2_43","prime_positive",3,36,1,423,"include"
"53","23.06.22",12:23:51,994692692,"test","2_44","prime_positive",4,42,1,614,"include"
"54","23.06.22",12:23:51,994692692,"test","2_45","prime_positive",1,27,1,485,"include"
"55","23.06.22",12:23:51,994692692,"test","2_46","prime_positive",4,64,1,1424,"include"
"56","23.06.22",12:23:51,994692692,"test","2_47","prime_positive",2,63,1,684,"include"
"57","23.06.22",12:23:51,994692692,"test","2_48","prime_positive",3,50,1,732,"include"
"58","23.06.22",12:23:51,994692692,"test","2_49","prime_positive",1,25,1,656,"include"
"59","23.06.22",12:23:51,994692692,"test","2_50","prime_negative",2,26,0,387,"include"
"60","23.06.22",12:23:51,994692692,"test","2_51","prime_positive",4,71,1,499,"include"
"61","23.06.22",12:23:51,994692692,"test","2_52","prime_negative",1,65,0,410,"include"
"62","23.06.22",12:23:51,994692692,"test","2_53","prime_positive",3,9,1,402,"include"
"63","23.06.22",12:23:51,994692692,"test","2_54","prime_negative",3,20,0,438,"include"
"64","23.06.22",12:23:51,994692692,"test","2_55","prime_positive",2,44,1,454,"include"
"65","23.06.22",12:23:51,994692692,"test","2_56","prime_positive",2,54,1,793,"include"
"66","23.06.22",12:23:51,994692692,"test","2_57","prime_positive",4,34,1,577,"include"
"67","23.06.22",12:23:51,994692692,"test","2_58","prime_negative",4,37,1,534,"include"
"68","23.06.22",12:23:51,994692692,"test","2_59","prime_negative",1,58,0,236,"include"
"69","23.06.22",12:23:51,994692692,"test","2_60","prime_negative",3,43,0,376,"include"
"70","23.06.22",12:23:51,994692692,"test","2_61","prime_negative",2,17,0,550,"include"
"71","23.06.22",12:23:51,994692692,"test","2_62","prime_negative",1,47,0,533,"include"
"72","23.06.22",12:23:51,994692692,"test","2_63","prime_positive",1,5,1,457,"include"
"73","23.06.22",12:23:51,994692692,"test","2_64","prime_positive",3,56,1,481,"include"
"74","23.06.22",12:23:51,994692692,"test","2_65","prime_positive",1,43,1,1368,"include"
"75","23.06.22",12:23:51,994692692,"test","2_66","prime_negative",2,32,1,606,"include"
"76","23.06.22",12:23:51,994692692,"test","2_67","prime_positive",2,11,1,421,"include"
"77","23.06.22",12:23:51,994692692,"test","2_68","prime_negative",3,6,0,357,"include"
"78","23.06.22",12:23:51,994692692,"test","2_69","prime_positive",3,69,1,564,"include"
"79","23.06.22",12:23:51,994692692,"test","2_70","prime_negative",4,7,1,780,"include"
"80","23.06.22",12:23:51,994692692,"test","2_71","prime_positive",4,33,1,4696,"include"
"81","23.06.22",12:23:51,994692692,"test","2_72","prime_positive",3,40,1,372,"include"
"82","23.06.22",12:23:51,994692692,"test","2_73","prime_negative",2,66,0,377,"include"
"83","23.06.22",12:28:35,246532124,"test","2_2","prime_positive",2,28,1,1344,"exclude"
"84","23.06.22",12:28:35,246532124,"test","2_3","prime_positive",3,63,1,769,"exclude"
"85","23.06.22",12:28:35,246532124,"test","2_4","prime_positive",1,13,1,636,"exclude"
"86","23.06.22",12:28:35,246532124,"test","2_5","prime_positive",4,60,1,502,"exclude"
"87","23.06.22",12:28:35,246532124,"test","2_6","prime_negative",3,57,1,670,"exclude"
"88","23.06.22",12:28:35,246532124,"test","2_7","prime_positive",1,44,1,569,"exclude"
"89","23.06.22",12:28:35,246532124,"test","2_8","prime_negative",1,45,1,695,"exclude"
"90","23.06.22",12:28:35,246532124,"test","2_9","prime_negative",4,12,1,752,"exclude"
"91","23.06.22",12:28:35,246532124,"test","2_10","prime_negative",2,62,1,1129,"exclude"
"92","23.06.22",12:28:35,246532124,"test","2_11","prime_positive",2,39,1,653,"exclude"
"93","23.06.22",12:28:35,246532124,"test","2_12","prime_positive",3,72,1,620,"exclude"
"94","23.06.22",12:28:35,246532124,"test","2_13","prime_positive",4,2,1,444,"exclude"
"95","23.06.22",12:28:35,246532124,"test","2_14","prime_positive",3,4,1,403,"exclude"
"96","23.06.22",12:28:35,246532124,"test","2_15","prime_positive",1,67,1,386,"exclude"
"97","23.06.22",12:28:35,246532124,"test","2_16","prime_negative",4,29,1,769,"exclude"
"98","23.06.22",12:28:35,246532124,"test","2_17","prime_negative",3,65,1,628,"exclude"
"99","23.06.22",12:28:35,246532124,"test","2_18","prime_negative",1,1,1,794,"exclude"
"100","23.06.22",12:28:35,246532124,"test","2_19","prime_negative",1,7,0,1338,"exclude"
"101","23.06.22",12:28:35,246532124,"test","2_20","prime_negative",4,70,1,611,"exclude"
"102","23.06.22",12:28:35,246532124,"test","2_21","prime_positive",2,54,1,794,"exclude"
"103","23.06.22",12:28:35,246532124,"test","2_22","prime_positive",4,6,1,453,"exclude"
"104","23.06.22",12:28:35,246532124,"test","2_23","prime_negative",2,23,1,1246,"exclude"
"105","23.06.22",12:28:35,246532124,"test","2_24","prime_negative",3,26,1,1388,"exclude"
"106","23.06.22",12:28:35,246532124,"test","2_25","prime_negative",1,22,0,770,"exclude"
"107","23.06.22",12:28:35,246532124,"test","2_26","prime_negative",3,38,1,528,"exclude"
"108","23.06.22",12:28:35,246532124,"test","2_27","prime_negative",4,9,1,477,"exclude"
"109","23.06.22",12:28:35,246532124,"test","2_28","prime_negative",2,16,1,1537,"exclude"
"110","23.06.22",12:28:35,246532124,"test","2_29","prime_positive",2,52,1,485,"exclude"
"111","23.06.22",12:28:35,246532124,"test","2_30","prime_positive",3,18,1,403,"exclude"
"112","23.06.22",12:28:35,246532124,"test","2_31","prime_negative",1,51,0,594,"exclude"
"113","23.06.22",12:28:35,246532124,"test","2_32","prime_positive",1,40,1,293,"exclude"
"114","23.06.22",12:28:35,246532124,"test","2_33","prime_positive",4,46,1,243,"exclude"
"115","23.06.22",12:28:35,246532124,"test","2_34","prime_negative",2,30,1,802,"exclude"
"116","23.06.22",12:28:35,246532124,"test","2_35","prime_positive",1,53,1,561,"exclude"
"117","23.06.22",12:28:35,246532124,"test","2_36","prime_negative",3,17,1,444,"exclude"
"118","23.06.22",12:28:35,246532124,"test","2_37","prime_negative",4,25,1,243,"exclude"
"119","23.06.22",12:28:35,246532124,"test","2_38","prime_positive",3,20,1,693,"exclude"
"120","23.06.22",12:28:35,246532124,"test","2_39","prime_positive",2,47,1,353,"exclude"
"121","23.06.22",12:28:35,246532124,"test","2_40","prime_positive",2,14,1,386,"exclude"
"122","23.06.22",12:28:35,246532124,"test","2_41","prime_positive",1,64,1,653,"exclude"
"123","23.06.22",12:28:35,246532124,"test","2_42","prime_negative",3,24,1,1262,"exclude"
"124","23.06.22",12:28:35,246532124,"test","2_43","prime_negative",2,66,1,635,"exclude"
"125","23.06.22",12:28:35,246532124,"test","2_44","prime_negative",1,42,1,1203,"exclude"
"126","23.06.22",12:28:35,246532124,"test","2_45","prime_negative",4,68,1,469,"exclude"
"127","23.06.22",12:28:35,246532124,"test","2_46","prime_negative",4,34,1,969,"exclude"
"128","23.06.22",12:28:35,246532124,"test","2_47","prime_positive",3,49,1,636,"exclude"
"129","23.06.22",12:28:35,246532124,"test","2_48","prime_negative",1,19,0,1254,"exclude"
"130","23.06.22",12:28:35,246532124,"test","2_49","prime_positive",4,37,1,535,"exclude"
"131","23.06.22",12:28:35,246532124,"test","2_50","prime_negative",3,50,1,570,"exclude"
"132","23.06.22",12:28:35,246532124,"test","2_51","prime_positive",2,5,1,561,"exclude"
"133","23.06.22",12:28:35,246532124,"test","2_52","prime_positive",1,31,1,527,"exclude"
"134","23.06.22",12:28:35,246532124,"test","2_53","prime_negative",2,3,1,778,"exclude"
"135","23.06.22",12:28:35,246532124,"test","2_54","prime_negative",3,33,0,895,"exclude"
"136","23.06.22",12:28:35,246532124,"test","2_55","prime_positive",4,56,1,627,"exclude"
"137","23.06.22",12:28:35,246532124,"test","2_56","prime_negative",2,11,0,920,"exclude"
"138","23.06.22",12:28:35,246532124,"test","2_57","prime_negative",4,21,1,637,"exclude"
"139","23.06.22",12:28:35,246532124,"test","2_58","prime_positive",3,10,1,628,"exclude"
"140","23.06.22",12:28:35,246532124,"test","2_59","prime_positive",2,48,1,460,"exclude"
"141","23.06.22",12:28:35,246532124,"test","2_60","prime_positive",1,36,1,437,"exclude"
"142","23.06.22",12:28:35,246532124,"test","2_61","prime_positive",3,71,1,402,"exclude"
"143","23.06.22",12:28:35,246532124,"test","2_62","prime_positive",4,43,1,486,"exclude"
"144","23.06.22",12:28:35,246532124,"test","2_63","prime_negative",1,8,1,2019,"exclude"
"145","23.06.22",12:28:35,246532124,"test","2_64","prime_negative",1,50,1,986,"exclude"
"146","23.06.22",12:28:35,246532124,"test","2_65","prime_positive",2,39,0,1062,"exclude"
"147","23.06.22",12:28:35,246532124,"test","2_66","prime_positive",3,24,1,828,"exclude"
"148","23.06.22",12:28:35,246532124,"test","2_67","prime_positive",4,28,1,561,"exclude"
"149","23.06.22",12:28:35,246532124,"test","2_68","prime_positive",1,63,1,419,"exclude"
"150","23.06.22",12:28:35,246532124,"test","2_69","prime_negative",4,17,0,961,"exclude"
"151","23.06.22",12:28:35,246532124,"test","2_70","prime_positive",2,11,1,419,"exclude"
"152","23.06.22",12:28:35,246532124,"test","2_71","prime_negative",3,16,1,536,"exclude"
"153","23.06.22",12:28:35,246532124,"test","2_72","prime_negative",2,58,1,494,"exclude"
"154","23.06.22",12:28:35,246532124,"test","2_73","prime_negative",3,3,1,1044,"exclude"
"155","23.06.22",12:32:49,246532124,"test","2_2","prime_negative",1,11,1,417,"exclude"
"156","23.06.22",12:32:49,246532124,"test","2_3","prime_negative",3,62,1,217,"exclude"
"157","23.06.22",12:32:49,246532124,"test","2_4","prime_positive",4,28,1,210,"exclude"
"158","23.06.22",12:32:49,246532124,"test","2_5","prime_negative",2,26,1,219,"exclude"
"159","23.06.22",12:32:49,246532124,"test","2_6","prime_negative",2,68,1,145,"exclude"
"160","23.06.22",12:32:49,246532124,"test","2_7","prime_positive",3,22,1,226,"exclude"
"161","23.06.22",12:32:49,246532124,"test","2_8","prime_negative",4,12,1,202,"exclude"
"162","23.06.22",12:32:49,246532124,"test","2_9","prime_positive",2,40,1,201,"exclude"
"163","23.06.22",12:32:49,246532124,"test","2_10","prime_negative",1,57,1,193,"exclude"
"164","23.06.22",12:32:49,246532124,"test","2_11","prime_positive",3,5,1,193,"exclude"
"165","23.06.22",12:32:49,246532124,"test","2_12","prime_positive",2,39,1,193,"exclude"
"166","23.06.22",12:32:49,246532124,"test","2_13","prime_negative",3,32,1,234,"exclude"
"167","23.06.22",12:32:49,246532124,"test","2_14","prime_negative",4,45,1,235,"exclude"
"168","23.06.22",12:32:49,246532124,"test","2_15","prime_positive",1,69,1,193,"exclude"
"169","23.06.22",12:32:49,246532124,"test","2_16","prime_positive",4,10,1,261,"exclude"
"170","23.06.22",12:32:49,246532124,"test","2_17","prime_positive",4,29,1,261,"exclude"
"171","23.06.22",12:32:49,246532124,"test","2_18","prime_negative",1,27,1,402,"exclude"
"172","23.06.22",12:32:49,246532124,"test","2_19","prime_negative",3,21,1,303,"exclude"
"173","23.06.22",12:32:49,246532124,"test","2_20","prime_positive",1,16,1,192,"exclude"
"174","23.06.22",12:32:49,246532124,"test","2_21","prime_positive",3,38,1,222,"exclude"
"175","23.06.22",12:32:49,246532124,"test","2_22","prime_positive",2,44,1,311,"exclude"
"176","23.06.22",12:32:49,246532124,"test","2_23","prime_positive",1,47,1,202,"exclude"
"177","23.06.22",12:32:49,246532124,"test","2_24","prime_positive",4,25,1,259,"exclude"
"178","23.06.22",12:32:49,246532124,"test","2_25","prime_negative",2,36,0,636,"exclude"
"179","23.06.22",12:32:49,246532124,"test","2_26","prime_negative",3,8,1,395,"exclude"
"180","23.06.22",12:32:49,246532124,"test","2_27","prime_positive",3,63,1,319,"exclude"
"181","23.06.22",12:32:49,246532124,"test","2_28","prime_negative",2,13,1,159,"exclude"
"182","23.06.22",12:32:49,246532124,"test","2_29","prime_negative",4,49,1,218,"exclude"
"183","23.06.22",12:32:49,246532124,"test","2_30","prime_positive",2,46,1,218,"exclude"
"184","23.06.22",12:32:49,246532124,"test","2_31","prime_negative",1,52,1,218,"exclude"
"185","23.06.22",12:32:49,246532124,"test","2_32","prime_positive",1,53,1,226,"exclude"
"186","23.06.22",12:32:49,246532124,"test","2_33","prime_negative",3,51,1,184,"exclude"
"187","23.06.22",12:32:49,246532124,"test","2_34","prime_positive",3,55,1,193,"exclude"
"188","23.06.22",12:32:49,246532124,"test","2_35","prime_positive",4,1,1,218,"exclude"
"189","23.06.22",12:32:49,246532124,"test","2_36","prime_negative",2,24,1,177,"exclude"
"190","23.06.22",12:32:49,246532124,"test","2_37","prime_positive",2,6,1,235,"exclude"
"191","23.06.22",12:32:49,246532124,"test","2_38","prime_positive",1,35,1,218,"exclude"
"192","23.06.22",12:32:49,246532124,"test","2_39","prime_negative",4,15,1,218,"exclude"
"193","23.06.22",12:32:49,246532124,"test","2_40","prime_negative",1,50,1,201,"exclude"
"194","23.06.22",12:32:49,246532124,"test","2_41","prime_positive",3,64,1,277,"exclude"
"195","23.06.22",12:32:49,246532124,"test","2_42","prime_negative",3,67,1,168,"exclude"
"196","23.06.22",12:32:49,246532124,"test","2_43","prime_negative",2,9,1,136,"exclude"
"197","23.06.22",12:32:49,246532124,"test","2_44","prime_positive",2,37,1,1052,"exclude"
"198","23.06.22",12:32:49,246532124,"test","2_45","prime_negative",1,54,1,352,"exclude"
"199","23.06.22",12:32:49,246532124,"test","2_46","prime_positive",4,33,1,201,"exclude"
"200","23.06.22",12:32:49,246532124,"test","2_47","prime_negative",4,58,1,394,"exclude"
"201","23.06.22",12:32:49,246532124,"test","2_48","prime_positive",1,70,1,293,"exclude"
"202","23.06.22",12:32:49,246532124,"test","2_49","prime_negative",3,41,1,201,"exclude"
"203","23.06.22",12:32:49,246532124,"test","2_50","prime_positive",2,71,1,167,"exclude"
"204","23.06.22",12:32:49,246532124,"test","2_51","prime_positive",3,42,1,168,"exclude"
"205","23.06.22",12:32:49,246532124,"test","2_52","prime_negative",2,61,1,219,"exclude"
"206","23.06.22",12:32:49,246532124,"test","2_53","prime_negative",1,2,1,202,"exclude"
"207","23.06.22",12:32:49,246532124,"test","2_54","prime_positive",4,56,1,251,"exclude"
"208","23.06.22",12:32:49,246532124,"test","2_55","prime_negative",4,65,1,318,"exclude"
"209","23.06.22",12:32:49,246532124,"test","2_56","prime_negative",4,30,1,201,"exclude"
"210","23.06.22",12:32:49,246532124,"test","2_57","prime_positive",4,19,1,226,"exclude"
"211","23.06.22",12:32:49,246532124,"test","2_58","prime_negative",1,20,1,200,"exclude"
"212","23.06.22",12:32:49,246532124,"test","2_59","prime_negative",3,18,1,192,"exclude"
"213","23.06.22",12:32:49,246532124,"test","2_60","prime_negative",2,7,1,201,"exclude"
"214","23.06.22",12:32:49,246532124,"test","2_61","prime_negative",3,4,1,26,"exclude"
"215","23.06.22",12:32:49,246532124,"test","2_62","prime_positive",1,48,1,167,"exclude"
"216","23.06.22",12:32:49,246532124,"test","2_63","prime_positive",3,23,1,251,"exclude"
"217","23.06.22",12:32:49,246532124,"test","2_64","prime_positive",2,8,1,420,"exclude"
"218","23.06.22",12:32:49,246532124,"test","2_65","prime_positive",4,10,1,378,"exclude"
"219","23.06.22",12:32:49,246532124,"test","2_66","prime_positive",3,30,1,235,"exclude"
"220","23.06.22",12:32:49,246532124,"test","2_67","prime_positive",2,57,1,227,"exclude"
"221","23.06.22",12:32:49,246532124,"test","2_68","prime_positive",1,26,1,251,"exclude"
"222","23.06.22",12:32:49,246532124,"test","2_69","prime_negative",1,2,1,235,"exclude"
"223","23.06.22",12:32:49,246532124,"test","2_70","prime_negative",4,20,1,226,"exclude"
"224","23.06.22",12:32:49,246532124,"test","2_71","prime_positive",4,38,1,193,"exclude"
"225","23.06.22",12:32:49,246532124,"test","2_72","prime_negative",2,14,1,243,"exclude"
"226","23.06.22",12:32:49,246532124,"test","2_73","prime_negative",2,51,1,269,"exclude"
"227","23.06.22",12:35:27,469672453,"test","2_2","prime_negative",2,9,1,1145,"include"
"228","23.06.22",12:35:27,469672453,"test","2_3","prime_positive",4,26,1,867,"include"
"229","23.06.22",12:35:27,469672453,"test","2_4","prime_negative",4,48,1,1252,"include"
"230","23.06.22",12:35:27,469672453,"test","2_5","prime_negative",3,13,1,824,"include"
"231","23.06.22",12:35:27,469672453,"test","2_6","prime_negative",2,22,1,452,"include"
"232","23.06.22",12:35:27,469672453,"test","2_7","prime_negative",3,53,1,461,"include"
"233","23.06.22",12:35:27,469672453,"test","2_8","prime_negative",1,38,1,513,"include"
"234","23.06.22",12:35:27,469672453,"test","2_9","prime_negative",4,18,0,880,"include"
"235","23.06.22",12:35:27,469672453,"test","2_10","prime_negative",2,72,0,1317,"include"
"236","23.06.22",12:35:27,469672453,"test","2_11","prime_negative",4,36,0,557,"include"
"237","23.06.22",12:35:27,469672453,"test","2_12","prime_positive",2,39,0,2754,"include"
"238","23.06.22",12:35:27,469672453,"test","2_13","prime_negative",1,51,1,714,"include"
"239","23.06.22",12:35:27,469672453,"test","2_14","prime_negative",3,65,1,579,"include"
"240","23.06.22",12:35:27,469672453,"test","2_15","prime_negative",4,37,0,1023,"include"
"241","23.06.22",12:35:27,469672453,"test","2_16","prime_positive",3,5,0,827,"include"
"242","23.06.22",12:35:27,469672453,"test","2_17","prime_positive",3,32,0,430,"include"
"243","23.06.22",12:35:27,469672453,"test","2_18","prime_negative",3,29,1,714,"include"
"244","23.06.22",12:35:27,469672453,"test","2_19","prime_positive",1,63,0,1027,"include"
"245","23.06.22",12:35:27,469672453,"test","2_20","prime_negative",1,44,1,1853,"include"
"246","23.06.22",12:35:27,469672453,"test","2_21","prime_negative",2,62,1,1207,"include"
"247","23.06.22",12:35:27,469672453,"test","2_22","prime_positive",4,20,1,439,"include"
"248","23.06.22",12:35:27,469672453,"test","2_23","prime_negative",1,19,1,344,"include"
"249","23.06.22",12:35:27,469672453,"test","2_24","prime_positive",2,1,0,446,"include"
"250","23.06.22",12:35:27,469672453,"test","2_25","prime_negative",4,66,1,1272,"include"
"251","23.06.22",12:35:27,469672453,"test","2_26","prime_negative",3,4,1,536,"include"
"252","23.06.22",12:35:27,469672453,"test","2_27","prime_negative",2,45,1,663,"include"
"253","23.06.22",12:35:27,469672453,"test","2_28","prime_negative",2,70,1,627,"include"
"254","23.06.22",12:35:27,469672453,"test","2_29","prime_positive",4,50,1,305,"include"
"255","23.06.22",12:35:27,469672453,"test","2_30","prime_positive",3,68,1,1645,"include"
"256","23.06.22",12:35:27,469672453,"test","2_31","prime_negative",4,33,1,587,"include"
"257","23.06.22",12:35:27,469672453,"test","2_32","prime_positive",1,15,0,723,"include"
"258","23.06.22",12:35:27,469672453,"test","2_33","prime_positive",2,46,0,538,"include"
"259","23.06.22",12:35:27,469672453,"test","2_34","prime_positive",2,47,0,329,"include"
"260","23.06.22",12:35:27,469672453,"test","2_35","prime_positive",1,64,0,443,"include"
"261","23.06.22",12:35:27,469672453,"test","2_36","prime_positive",4,8,1,402,"include"
"262","23.06.22",12:35:27,469672453,"test","2_37","prime_positive",3,3,0,1276,"include"
"263","23.06.22",12:35:27,469672453,"test","2_38","prime_positive",2,61,0,870,"include"
"264","23.06.22",12:35:27,469672453,"test","2_39","prime_positive",4,42,1,416,"include"
"265","23.06.22",12:35:27,469672453,"test","2_40","prime_negative",3,17,1,753,"include"
"266","23.06.22",12:35:27,469672453,"test","2_41","prime_positive",1,56,0,546,"include"
"267","23.06.22",12:35:27,469672453,"test","2_42","prime_positive",3,12,0,2213,"include"
"268","23.06.22",12:35:27,469672453,"test","2_43","prime_positive",4,55,1,399,"include"
"269","23.06.22",12:35:27,469672453,"test","2_44","prime_negative",1,41,1,1017,"include"
"270","23.06.22",12:35:27,469672453,"test","2_45","prime_negative",1,67,1,405,"include"
"271","23.06.22",12:35:27,469672453,"test","2_46","prime_positive",2,35,0,322,"include"
"272","23.06.22",12:35:27,469672453,"test","2_47","prime_negative",3,52,1,1975,"include"
"273","23.06.22",12:35:27,469672453,"test","2_48","prime_positive",3,60,0,776,"include"
"274","23.06.22",12:35:27,469672453,"test","2_49","prime_negative",2,27,1,2417,"include"
"275","23.06.22",12:35:27,469672453,"test","2_50","prime_positive",1,34,0,345,"include"
"276","23.06.22",12:35:27,469672453,"test","2_51","prime_negative",4,40,1,677,"include"
"277","23.06.22",12:35:27,469672453,"test","2_52","prime_negative",2,2,1,960,"include"
"278","23.06.22",12:35:27,469672453,"test","2_53","prime_positive",2,28,0,512,"include"
"279","23.06.22",12:35:27,469672453,"test","2_54","prime_positive",3,21,0,404,"include"
"280","23.06.22",12:35:27,469672453,"test","2_55","prime_negative",4,25,1,736,"include"
"281","23.06.22",12:35:27,469672453,"test","2_56","prime_positive",4,58,1,322,"include"
"282","23.06.22",12:35:27,469672453,"test","2_57","prime_negative",3,10,0,579,"include"
"283","23.06.22",12:35:27,469672453,"test","2_58","prime_positive",1,14,0,1290,"include"
"284","23.06.22",12:35:27,469672453,"test","2_59","prime_positive",1,24,0,347,"include"
"285","23.06.22",12:35:27,469672453,"test","2_60","prime_negative",1,30,1,776,"include"
"286","23.06.22",12:35:27,469672453,"test","2_61","prime_positive",2,43,0,465,"include"
"287","23.06.22",12:35:27,469672453,"test","2_62","prime_positive",4,16,1,458,"include"
"288","23.06.22",12:35:27,469672453,"test","2_63","prime_negative",3,11,1,4233,"include"
"289","23.06.22",12:35:27,469672453,"test","2_64","prime_positive",3,58,0,536,"include"
"290","23.06.22",12:35:27,469672453,"test","2_65","prime_positive",1,31,0,443,"include"
"291","23.06.22",12:35:27,469672453,"test","2_66","prime_negative",2,54,1,888,"include"
"292","23.06.22",12:35:27,469672453,"test","2_67","prime_negative",1,3,0,388,"include"
"293","23.06.22",12:35:27,469672453,"test","2_68","prime_negative",4,68,0,1888,"include"
"294","23.06.22",12:35:27,469672453,"test","2_69","prime_positive",4,70,1,954,"include"
"295","23.06.22",12:35:27,469672453,"test","2_70","prime_negative",2,7,0,475,"include"
"296","23.06.22",12:35:27,469672453,"test","2_71","prime_positive",3,43,0,396,"include"
"297","23.06.22",12:35:27,469672453,"test","2_72","prime_positive",2,21,0,499,"include"
"298","23.06.22",12:35:27,469672453,"test","2_73","prime_positive",1,22,0,340,"include"
"299","23.06.22",12:33:59,902223169,"test","2_2","prime_positive",3,41,0,3329,"include"
"300","23.06.22",12:33:59,902223169,"test","2_3","prime_negative",1,40,1,1403,"include"
"301","23.06.22",12:33:59,902223169,"test","2_4","prime_positive",4,47,1,1670,"include"
"302","23.06.22",12:33:59,902223169,"test","2_5","prime_positive",1,42,1,709,"include"
"303","23.06.22",12:33:59,902223169,"test","2_6","prime_negative",2,62,0,1165,"include"
"304","23.06.22",12:33:59,902223169,"test","2_7","prime_positive",2,12,1,1795,"include"
"305","23.06.22",12:33:59,902223169,"test","2_8","prime_negative",4,30,1,1314,"include"
"306","23.06.22",12:33:59,902223169,"test","2_9","prime_positive",3,21,0,1225,"include"
"307","23.06.22",12:33:59,902223169,"test","2_10","prime_positive",4,9,1,1044,"include"
"308","23.06.22",12:33:59,902223169,"test","2_11","prime_positive",1,22,1,678,"include"
"309","23.06.22",12:33:59,902223169,"test","2_12","prime_negative",4,53,0,556,"include"
"310","23.06.22",12:33:59,902223169,"test","2_13","prime_positive",2,70,1,1325,"include"
"311","23.06.22",12:33:59,902223169,"test","2_14","prime_positive",4,34,0,642,"include"
"312","23.06.22",12:33:59,902223169,"test","2_15","prime_negative",1,2,1,1262,"include"
"313","23.06.22",12:33:59,902223169,"test","2_16","prime_negative",3,66,0,1099,"include"
"314","23.06.22",12:33:59,902223169,"test","2_17","prime_positive",1,44,0,914,"include"
"315","23.06.22",12:33:59,902223169,"test","2_18","prime_negative",2,45,0,807,"include"
"316","23.06.22",12:33:59,902223169,"test","2_19","prime_negative",4,33,1,1720,"include"
"317","23.06.22",12:33:59,902223169,"test","2_20","prime_negative",2,69,0,944,"include"
"318","23.06.22",12:33:59,902223169,"test","2_21","prime_negative",1,3,0,2329,"include"
"319","23.06.22",12:33:59,902223169,"test","2_22","prime_negative",3,52,0,909,"include"
"320","23.06.22",12:33:59,902223169,"test","2_23","prime_negative",1,71,0,1203,"include"
"321","23.06.22",12:33:59,902223169,"test","2_24","prime_positive",3,65,1,1036,"include"
"322","23.06.22",12:33:59,902223169,"test","2_25","prime_negative",2,7,1,751,"include"
"323","23.06.22",12:33:59,902223169,"test","2_26","prime_positive",1,64,1,871,"include"
"324","23.06.22",12:33:59,902223169,"test","2_27","prime_negative",4,43,0,765,"include"
"325","23.06.22",12:33:59,902223169,"test","2_28","prime_negative",3,37,0,712,"include"
"326","23.06.22",12:33:59,902223169,"test","2_29","prime_positive",3,58,0,616,"include"
"327","23.06.22",12:33:59,902223169,"test","2_30","prime_positive",4,46,1,964,"include"
"328","23.06.22",12:33:59,902223169,"test","2_31","prime_negative",4,31,1,2458,"include"
"329","23.06.22",12:33:59,902223169,"test","2_32","prime_negative",2,26,0,891,"include"
"330","23.06.22",12:33:59,902223169,"test","2_33","prime_positive",2,17,1,506,"include"
"331","23.06.22",12:33:59,902223169,"test","2_34","prime_positive",1,54,1,2315,"include"
"332","23.06.22",12:33:59,902223169,"test","2_35","prime_negative",1,57,1,664,"include"
"333","23.06.22",12:33:59,902223169,"test","2_36","prime_positive",2,25,1,1254,"include"
"334","23.06.22",12:33:59,902223169,"test","2_37","prime_negative",3,38,1,806,"include"
"335","23.06.22",12:33:59,902223169,"test","2_38","prime_negative",3,10,0,492,"include"
"336","23.06.22",12:33:59,902223169,"test","2_39","prime_negative",2,18,0,530,"include"
"337","23.06.22",12:33:59,902223169,"test","2_40","prime_positive",4,27,1,710,"include"
"338","23.06.22",12:33:59,902223169,"test","2_41","prime_positive",3,63,0,472,"include"
"339","23.06.22",12:33:59,902223169,"test","2_42","prime_negative",1,36,1,962,"include"
"340","23.06.22",12:33:59,902223169,"test","2_43","prime_positive",3,72,0,920,"include"
"341","23.06.22",12:33:59,902223169,"test","2_44","prime_negative",4,49,0,899,"include"
"342","23.06.22",12:33:59,902223169,"test","2_45","prime_positive",4,55,1,1877,"include"
"343","23.06.22",12:33:59,902223169,"test","2_46","prime_positive",2,35,0,1176,"include"
"344","23.06.22",12:33:59,902223169,"test","2_47","prime_positive",1,60,1,1237,"include"
"345","23.06.22",12:33:59,902223169,"test","2_48","prime_negative",3,59,0,452,"include"
"346","23.06.22",12:33:59,902223169,"test","2_49","prime_negative",2,14,0,1149,"include"
"347","23.06.22",12:33:59,902223169,"test","2_50","prime_negative",1,15,1,1670,"include"
"348","23.06.22",12:33:59,902223169,"test","2_51","prime_negative",4,11,1,1037,"include"
"349","23.06.22",12:33:59,902223169,"test","2_52","prime_positive",3,29,1,491,"include"
"350","23.06.22",12:33:59,902223169,"test","2_53","prime_positive",2,19,0,313,"include"
"351","23.06.22",12:33:59,902223169,"test","2_54","prime_negative",2,8,0,537,"include"
"352","23.06.22",12:33:59,902223169,"test","2_55","prime_positive",1,4,0,307,"include"
"353","23.06.22",12:33:59,902223169,"test","2_56","prime_positive",4,39,1,405,"include"
"354","23.06.22",12:33:59,902223169,"test","2_57","prime_positive",2,56,1,41169,"include"
"355","23.06.22",12:33:59,902223169,"test","2_58","prime_negative",1,51,1,868,"include"
"356","23.06.22",12:33:59,902223169,"test","2_59","prime_positive",1,16,0,3274,"include"
"357","23.06.22",12:33:59,902223169,"test","2_60","prime_positive",4,28,0,602,"include"
"358","23.06.22",12:33:59,902223169,"test","2_61","prime_negative",3,23,1,819,"include"
"359","23.06.22",12:33:59,902223169,"test","2_62","prime_negative",4,6,1,760,"include"
"360","23.06.22",12:33:59,902223169,"test","2_63","prime_positive",3,20,1,1663,"include"
"361","23.06.22",12:33:59,902223169,"test","2_64","prime_negative",2,27,1,814,"include"
"362","23.06.22",12:33:59,902223169,"test","2_65","prime_positive",3,9,1,598,"include"
"363","23.06.22",12:33:59,902223169,"test","2_66","prime_positive",2,7,0,670,"include"
"364","23.06.22",12:33:59,902223169,"test","2_67","prime_negative",4,28,0,1074,"include"
"365","23.06.22",12:33:59,902223169,"test","2_68","prime_negative",3,52,0,1548,"include"
"366","23.06.22",12:33:59,902223169,"test","2_69","prime_negative",1,46,1,477,"include"
"367","23.06.22",12:33:59,902223169,"test","2_70","prime_negative",2,30,1,624,"include"
"368","23.06.22",12:33:59,902223169,"test","2_71","prime_positive",4,10,0,1306,"include"
"369","23.06.22",12:33:59,902223169,"test","2_72","prime_positive",1,49,1,974,"include"
"370","23.06.22",12:33:59,902223169,"test","2_73","prime_positive",3,2,1,535,"include"
"371","23.06.22",13:37:13,637089700,"test","2_2","prime_negative",3,11,1,471,"include"
"372","23.06.22",13:37:13,637089700,"test","2_3","prime_negative",2,71,1,424,"include"
"373","23.06.22",13:37:13,637089700,"test","2_4","prime_negative",4,6,1,423,"include"
"374","23.06.22",13:37:13,637089700,"test","2_5","prime_negative",4,33,1,438,"include"
"375","23.06.22",13:37:13,637089700,"test","2_6","prime_negative",1,60,1,471,"include"
"376","23.06.22",13:37:13,637089700,"test","2_7","prime_positive",2,40,1,392,"include"
"377","23.06.22",13:37:13,637089700,"test","2_8","prime_negative",2,15,1,543,"include"
"378","23.06.22",13:37:13,637089700,"test","2_9","prime_negative",3,25,1,481,"include"
"379","23.06.22",13:37:13,637089700,"test","2_10","prime_positive",3,38,1,438,"include"
"380","23.06.22",13:37:13,637089700,"test","2_11","prime_positive",4,18,1,500,"include"
"381","23.06.22",13:37:13,637089700,"test","2_12","prime_negative",1,3,1,511,"include"
"382","23.06.22",13:37:13,637089700,"test","2_13","prime_negative",3,55,1,407,"include"
"383","23.06.22",13:37:13,637089700,"test","2_14","prime_positive",2,28,1,366,"include"
"384","23.06.22",13:37:13,637089700,"test","2_15","prime_negative",2,62,1,388,"include"
"385","23.06.22",13:37:13,637089700,"test","2_16","prime_positive",1,72,1,386,"include"
"386","23.06.22",13:37:13,637089700,"test","2_17","prime_positive",4,61,1,452,"include"
"387","23.06.22",13:37:13,637089700,"test","2_18","prime_positive",3,31,1,424,"include"
"388","23.06.22",13:37:13,637089700,"test","2_19","prime_positive",4,4,1,426,"include"
"389","23.06.22",13:37:13,637089700,"test","2_20","prime_positive",2,66,1,361,"include"
"390","23.06.22",13:37:13,637089700,"test","2_21","prime_negative",4,51,1,388,"include"
"391","23.06.22",13:37:13,637089700,"test","2_22","prime_positive",1,49,1,333,"include"
"392","23.06.22",13:37:13,637089700,"test","2_23","prime_positive",3,69,1,465,"include"
"393","23.06.22",13:37:13,637089700,"test","2_24","prime_positive",2,23,1,719,"include"
"394","23.06.22",13:37:13,637089700,"test","2_25","prime_negative",3,68,1,518,"include"
"395","23.06.22",13:37:13,637089700,"test","2_26","prime_negative",2,1,1,395,"include"
"396","23.06.22",13:37:13,637089700,"test","2_27","prime_negative",1,67,1,485,"include"
"397","23.06.22",13:37:13,637089700,"test","2_28","prime_positive",3,13,1,508,"include"
"398","23.06.22",13:37:13,637089700,"test","2_29","prime_negative",4,44,1,395,"include"
"399","23.06.22",13:37:13,637089700,"test","2_30","prime_positive",4,46,1,423,"include"
"400","23.06.22",13:37:13,637089700,"test","2_31","prime_positive",1,14,1,322,"include"
"401","23.06.22",13:37:13,637089700,"test","2_32","prime_positive",2,9,1,672,"include"
"402","23.06.22",13:37:13,637089700,"test","2_33","prime_negative",4,57,1,339,"include"
"403","23.06.22",13:37:13,637089700,"test","2_34","prime_positive",3,24,1,275,"include"
"404","23.06.22",13:37:13,637089700,"test","2_35","prime_positive",4,21,1,286,"include"
"405","23.06.22",13:37:13,637089700,"test","2_36","prime_positive",1,29,1,262,"include"
"406","23.06.22",13:37:13,637089700,"test","2_37","prime_negative",2,2,1,276,"include"
"407","23.06.22",13:37:13,637089700,"test","2_38","prime_positive",4,10,1,214,"include"
"408","23.06.22",13:37:13,637089700,"test","2_39","prime_negative",1,16,1,240,"include"
"409","23.06.22",13:37:13,637089700,"test","2_40","prime_positive",2,35,1,276,"include"
"410","23.06.22",13:37:13,637089700,"test","2_41","prime_negative",3,27,1,228,"include"
"411","23.06.22",13:37:13,637089700,"test","2_42","prime_positive",3,50,1,215,"include"
"412","23.06.22",13:37:13,637089700,"test","2_43","prime_negative",1,58,1,195,"include"
"413","23.06.22",13:37:13,637089700,"test","2_44","prime_negative",3,59,1,194,"include"
"414","23.06.22",13:37:13,637089700,"test","2_45","prime_negative",4,32,1,258,"include"
"415","23.06.22",13:37:13,637089700,"test","2_46","prime_negative",2,53,1,289,"include"
"416","23.06.22",13:37:13,637089700,"test","2_47","prime_negative",1,30,1,245,"include"
"417","23.06.22",13:37:13,637089700,"test","2_48","prime_negative",4,19,1,253,"include"
"418","23.06.22",13:37:13,637089700,"test","2_49","prime_positive",1,70,1,268,"include"
"419","23.06.22",13:37:13,637089700,"test","2_50","prime_positive",2,20,1,253,"include"
"420","23.06.22",13:37:13,637089700,"test","2_51","prime_negative",3,47,1,274,"include"
"421","23.06.22",13:37:13,637089700,"test","2_52","prime_negative",2,43,1,291,"include"
"422","23.06.22",13:37:13,637089700,"test","2_53","prime_negative",1,5,1,484,"include"
"423","23.06.22",13:37:13,637089700,"test","2_54","prime_negative",3,36,1,432,"include"
"424","23.06.22",13:37:13,637089700,"test","2_55","prime_positive",1,22,1,578,"include"
"425","23.06.22",13:37:13,637089700,"test","2_56","prime_positive",4,48,1,420,"include"
"426","23.06.22",13:37:13,637089700,"test","2_57","prime_negative",4,64,1,317,"include"
"427","23.06.22",13:37:13,637089700,"test","2_58","prime_positive",3,54,1,306,"include"
"428","23.06.22",13:37:13,637089700,"test","2_59","prime_negative",2,12,1,397,"include"
"429","23.06.22",13:37:13,637089700,"test","2_60","prime_positive",3,63,1,311,"include"
"430","23.06.22",13:37:13,637089700,"test","2_61","prime_positive",1,52,1,252,"include"
"431","23.06.22",13:37:13,637089700,"test","2_62","prime_positive",2,45,1,255,"include"
"432","23.06.22",13:37:13,637089700,"test","2_63","prime_positive",4,41,1,269,"include"
"433","23.06.22",13:37:13,637089700,"test","2_64","prime_positive",4,36,1,290,"include"
"434","23.06.22",13:37:13,637089700,"test","2_65","prime_positive",2,71,1,878,"include"
"435","23.06.22",13:37:13,637089700,"test","2_66","prime_negative",3,32,1,374,"include"
"436","23.06.22",13:37:13,637089700,"test","2_67","prime_negative",1,37,1,269,"include"
"437","23.06.22",13:37:13,637089700,"test","2_68","prime_positive",3,45,1,269,"include"
"438","23.06.22",13:37:13,637089700,"test","2_69","prime_negative",2,7,1,281,"include"
"439","23.06.22",13:37:13,637089700,"test","2_70","prime_negative",4,13,1,332,"include"
"440","23.06.22",13:37:13,637089700,"test","2_71","prime_negative",4,6,1,215,"include"
"441","23.06.22",13:37:13,637089700,"test","2_72","prime_positive",1,41,1,219,"include"
"442","23.06.22",13:37:13,637089700,"test","2_73","prime_positive",1,63,1,201,"include"
"443","23.06.22",12:37:38,4345805,"test","2_2","prime_positive",3,67,1,967,"include"
"444","23.06.22",12:37:38,4345805,"test","2_3","prime_positive",2,48,0,483,"include"
"445","23.06.22",12:37:38,4345805,"test","2_4","prime_negative",2,64,1,495,"include"
"446","23.06.22",12:37:38,4345805,"test","2_5","prime_positive",1,42,0,1038,"include"
"447","23.06.22",12:37:38,4345805,"test","2_6","prime_positive",1,43,0,668,"include"
"448","23.06.22",12:37:38,4345805,"test","2_7","prime_negative",4,20,1,562,"include"
"449","23.06.22",12:37:38,4345805,"test","2_8","prime_positive",2,56,0,567,"include"
"450","23.06.22",12:37:38,4345805,"test","2_9","prime_negative",1,47,0,8919,"include"
"451","23.06.22",12:37:38,4345805,"test","2_10","prime_negative",3,32,1,2473,"include"
"452","23.06.22",12:37:38,4345805,"test","2_11","prime_positive",3,15,0,347,"include"
"453","23.06.22",12:37:38,4345805,"test","2_12","prime_positive",4,2,0,268,"include"
"454","23.06.22",12:37:38,4345805,"test","2_13","prime_positive",1,12,0,158,"include"
"455","23.06.22",12:37:38,4345805,"test","2_14","prime_positive",2,30,1,117,"include"
"456","23.06.22",12:37:38,4345805,"test","2_15","prime_negative",2,69,0,3,"include"
"457","23.06.22",12:37:38,4345805,"test","2_16","prime_negative",4,50,0,276,"include"
"458","23.06.22",12:37:38,4345805,"test","2_17","prime_positive",3,72,1,253,"include"
"459","23.06.22",12:37:38,4345805,"test","2_18","prime_negative",1,8,0,209,"include"
"460","23.06.22",12:37:38,4345805,"test","2_19","prime_positive",4,57,0,126,"include"
"461","23.06.22",12:37:38,4345805,"test","2_20","prime_negative",4,1,0,222,"include"
"462","23.06.22",12:37:38,4345805,"test","2_21","prime_positive",1,70,0,248,"include"
"463","23.06.22",12:37:38,4345805,"test","2_22","prime_negative",1,3,1,266,"include"
"464","23.06.22",12:37:38,4345805,"test","2_23","prime_positive",4,65,0,745,"include"
"465","23.06.22",12:37:38,4345805,"test","2_24","prime_negative",3,45,1,206,"include"
"466","23.06.22",12:37:38,4345805,"test","2_25","prime_positive",2,60,0,455,"include"
"467","23.06.22",12:37:38,4345805,"test","2_26","prime_positive",3,68,0,483,"include"
"468","23.06.22",12:37:38,4345805,"test","2_27","prime_positive",2,21,1,489,"include"
"469","23.06.22",12:37:38,4345805,"test","2_28","prime_positive",4,25,0,436,"include"
"470","23.06.22",12:37:38,4345805,"test","2_29","prime_negative",2,51,0,421,"include"
"471","23.06.22",12:37:38,4345805,"test","2_30","prime_negative",4,6,1,391,"include"
"472","23.06.22",12:37:38,4345805,"test","2_31","prime_negative",1,55,0,577,"include"
"473","23.06.22",12:37:38,4345805,"test","2_32","prime_negative",2,39,1,604,"include"
"474","23.06.22",12:37:38,4345805,"test","2_33","prime_positive",1,28,1,396,"include"
"475","23.06.22",12:37:38,4345805,"test","2_34","prime_negative",3,24,1,583,"include"
"476","23.06.22",12:37:38,4345805,"test","2_35","prime_negative",2,62,0,367,"include"
"477","23.06.22",12:37:38,4345805,"test","2_36","prime_positive",3,41,1,406,"include"
"478","23.06.22",12:37:38,4345805,"test","2_37","prime_positive",3,54,0,290,"include"
"479","23.06.22",12:37:38,4345805,"test","2_38","prime_positive",2,17,1,239,"include"
"480","23.06.22",12:37:38,4345805,"test","2_39","prime_positive",4,63,0,87,"include"
"481","23.06.22",12:37:38,4345805,"test","2_40","prime_positive",1,38,1,422,"include"
"482","23.06.22",12:37:38,4345805,"test","2_41","prime_negative",3,59,1,923,"include"
"483","23.06.22",12:37:38,4345805,"test","2_42","prime_negative",1,37,1,543,"include"
"484","23.06.22",12:37:38,4345805,"test","2_43","prime_positive",4,71,0,353,"include"
"485","23.06.22",12:37:38,4345805,"test","2_44","prime_positive",3,26,0,452,"include"
"486","23.06.22",12:37:38,4345805,"test","2_45","prime_positive",2,16,1,362,"include"
"487","23.06.22",12:37:38,4345805,"test","2_46","prime_positive",1,52,0,224,"include"
"488","23.06.22",12:37:38,4345805,"test","2_47","prime_negative",4,34,1,140,"include"
"489","23.06.22",12:37:38,4345805,"test","2_48","prime_negative",3,36,0,292,"include"
"490","23.06.22",12:37:38,4345805,"test","2_49","prime_positive",1,44,0,56,"include"
"491","23.06.22",12:37:38,4345805,"test","2_50","prime_negative",2,46,0,881,"include"
"492","23.06.22",12:37:38,4345805,"test","2_51","prime_positive",3,49,0,361,"include"
"493","23.06.22",12:37:38,4345805,"test","2_52","prime_negative",4,10,0,224,"include"
"494","23.06.22",12:37:38,4345805,"test","2_53","prime_negative",1,53,1,321,"include"
"495","23.06.22",12:37:38,4345805,"test","2_54","prime_negative",4,18,1,190,"include"
"496","23.06.22",12:37:38,4345805,"test","2_55","prime_negative",1,66,1,266,"include"
"497","23.06.22",12:37:38,4345805,"test","2_56","prime_negative",3,19,0,195,"include"
"498","23.06.22",12:37:38,4345805,"test","2_57","prime_positive",4,40,0,286,"include"
"499","23.06.22",12:37:38,4345805,"test","2_58","prime_negative",2,22,1,246,"include"
"500","23.06.22",12:37:38,4345805,"test","2_59","prime_negative",2,23,1,441,"include"
"501","23.06.22",12:37:38,4345805,"test","2_60","prime_positive",2,35,0,349,"include"
"502","23.06.22",12:37:38,4345805,"test","2_61","prime_positive",4,61,1,325,"include"
"503","23.06.22",12:37:38,4345805,"test","2_62","prime_negative",4,9,1,397,"include"
"504","23.06.22",12:37:38,4345805,"test","2_63","prime_negative",1,7,1,382,"include"
"505","23.06.22",12:37:38,4345805,"test","2_64","prime_positive",2,36,0,353,"include"
"506","23.06.22",12:37:38,4345805,"test","2_65","prime_negative",3,60,0,299,"include"
"507","23.06.22",12:37:38,4345805,"test","2_66","prime_negative",3,28,1,319,"include"
"508","23.06.22",12:37:38,4345805,"test","2_67","prime_negative",1,21,0,315,"include"
"509","23.06.22",12:37:38,4345805,"test","2_68","prime_negative",4,42,1,247,"include"
"510","23.06.22",12:37:38,4345805,"test","2_69","prime_negative",2,35,1,167,"include"
"511","23.06.22",12:37:38,4345805,"test","2_70","prime_positive",1,30,1,222,"include"
"512","23.06.22",12:37:38,4345805,"test","2_71","prime_positive",3,39,0,493,"include"
"513","23.06.22",12:37:38,4345805,"test","2_72","prime_negative",4,46,0,255,"include"
"514","23.06.22",12:37:38,4345805,"test","2_73","prime_positive",3,12,0,197,"include"
"515","23.06.22",13:37:57,786441188,"test","2_2","prime_negative",1,24,0,834,"include"
"516","23.06.22",13:37:57,786441188,"test","2_3","prime_positive",3,37,1,433,"include"
"517","23.06.22",13:37:57,786441188,"test","2_4","prime_negative",3,29,0,277,"include"
"518","23.06.22",13:37:57,786441188,"test","2_5","prime_negative",4,23,0,523,"include"
"519","23.06.22",13:37:57,786441188,"test","2_6","prime_positive",2,27,1,375,"include"
"520","23.06.22",13:37:57,786441188,"test","2_7","prime_positive",4,52,0,330,"include"
"521","23.06.22",13:37:57,786441188,"test","2_8","prime_negative",2,38,0,443,"include"
"522","23.06.22",13:37:57,786441188,"test","2_9","prime_negative",3,72,0,421,"include"
"523","23.06.22",13:37:57,786441188,"test","2_10","prime_negative",1,39,0,420,"include"
"524","23.06.22",13:37:57,786441188,"test","2_11","prime_positive",4,16,0,918,"include"
"525","23.06.22",13:37:57,786441188,"test","2_12","prime_negative",4,2,0,546,"include"
"526","23.06.22",13:37:57,786441188,"test","2_13","prime_negative",1,33,0,462,"include"
"527","23.06.22",13:37:57,786441188,"test","2_14","prime_positive",1,28,1,377,"include"
"528","23.06.22",13:37:57,786441188,"test","2_15","prime_positive",2,41,1,457,"include"
"529","23.06.22",13:37:57,786441188,"test","2_16","prime_negative",3,44,0,473,"include"
"530","23.06.22",13:37:57,786441188,"test","2_17","prime_positive",3,58,1,939,"include"
"531","23.06.22",13:37:57,786441188,"test","2_18","prime_positive",2,45,1,467,"include"
"532","23.06.22",13:37:57,786441188,"test","2_19","prime_positive",1,36,1,367,"include"
"533","23.06.22",13:37:57,786441188,"test","2_20","prime_negative",2,5,0,487,"include"
"534","23.06.22",13:37:57,786441188,"test","2_21","prime_negative",4,54,0,663,"include"
"535","23.06.22",13:37:57,786441188,"test","2_22","prime_positive",4,1,0,676,"include"
"536","23.06.22",13:37:57,786441188,"test","2_23","prime_positive",3,13,1,549,"include"
"537","23.06.22",13:37:57,786441188,"test","2_24","prime_positive",4,70,0,431,"include"
"538","23.06.22",13:37:57,786441188,"test","2_25","prime_positive",1,34,1,330,"include"
"539","23.06.22",13:37:57,786441188,"test","2_26","prime_negative",2,57,0,865,"include"
"540","23.06.22",13:37:57,786441188,"test","2_27","prime_positive",2,6,1,290,"include"
"541","23.06.22",13:37:57,786441188,"test","2_28","prime_positive",3,21,1,449,"include"
"542","23.06.22",13:37:57,786441188,"test","2_29","prime_positive",3,10,1,435,"include"
"543","23.06.22",13:37:57,786441188,"test","2_30","prime_positive",1,60,1,362,"include"
"544","23.06.22",13:37:57,786441188,"test","2_31","prime_negative",4,11,0,567,"include"
"545","23.06.22",13:37:57,786441188,"test","2_32","prime_negative",1,67,0,299,"include"
"546","23.06.22",13:37:57,786441188,"test","2_33","prime_negative",3,3,0,300,"include"
"547","23.06.22",13:37:57,786441188,"test","2_34","prime_positive",4,48,0,362,"include"
"548","23.06.22",13:37:57,786441188,"test","2_35","prime_negative",1,68,0,635,"include"
"549","23.06.22",13:37:57,786441188,"test","2_36","prime_negative",2,69,0,528,"include"
"550","23.06.22",13:37:57,786441188,"test","2_37","prime_positive",2,63,1,441,"include"
"551","23.06.22",13:37:57,786441188,"test","2_38","prime_positive",1,47,1,554,"include"
"552","23.06.22",13:37:57,786441188,"test","2_39","prime_negative",3,40,0,568,"include"
"553","23.06.22",13:37:57,786441188,"test","2_40","prime_positive",2,50,1,553,"include"
"554","23.06.22",13:37:57,786441188,"test","2_41","prime_negative",4,59,0,722,"include"
"555","23.06.22",13:37:57,786441188,"test","2_42","prime_positive",3,15,1,525,"include"
"556","23.06.22",13:37:57,786441188,"test","2_43","prime_positive",4,43,0,669,"include"
"557","23.06.22",13:37:57,786441188,"test","2_44","prime_positive",2,32,1,319,"include"
"558","23.06.22",13:37:57,786441188,"test","2_45","prime_negative",4,30,0,454,"include"
"559","23.06.22",13:37:57,786441188,"test","2_46","prime_positive",3,53,1,415,"include"
"560","23.06.22",13:37:57,786441188,"test","2_47","prime_negative",3,4,0,515,"include"
"561","23.06.22",13:37:57,786441188,"test","2_48","prime_positive",4,25,0,404,"include"
"562","23.06.22",13:37:57,786441188,"test","2_49","prime_negative",2,71,0,461,"include"
"563","23.06.22",13:37:57,786441188,"test","2_50","prime_positive",1,20,1,401,"include"
"564","23.06.22",13:37:57,786441188,"test","2_51","prime_negative",1,12,0,422,"include"
"565","23.06.22",13:37:57,786441188,"test","2_52","prime_positive",2,14,1,466,"include"
"566","23.06.22",13:37:57,786441188,"test","2_53","prime_negative",2,56,0,362,"include"
"567","23.06.22",13:37:57,786441188,"test","2_54","prime_negative",4,66,0,1009,"include"
"568","23.06.22",13:37:57,786441188,"test","2_55","prime_positive",4,26,0,1065,"include"
"569","23.06.22",13:37:57,786441188,"test","2_56","prime_positive",1,8,1,320,"include"
"570","23.06.22",13:37:57,786441188,"test","2_57","prime_positive",3,31,1,435,"include"
"571","23.06.22",13:37:57,786441188,"test","2_58","prime_negative",3,46,0,440,"include"
"572","23.06.22",13:37:57,786441188,"test","2_59","prime_positive",4,22,0,4314,"include"
"573","23.06.22",13:37:57,786441188,"test","2_60","prime_negative",1,51,0,3146,"include"
"574","23.06.22",13:37:57,786441188,"test","2_61","prime_negative",4,55,1,512,"include"
"575","23.06.22",13:37:57,786441188,"test","2_62","prime_negative",1,49,0,2225,"include"
"576","23.06.22",13:37:57,786441188,"test","2_63","prime_positive",2,65,0,1646,"include"
"577","23.06.22",13:37:57,786441188,"test","2_64","prime_positive",1,70,1,1093,"include"
"578","23.06.22",13:37:57,786441188,"test","2_65","prime_positive",3,53,0,1748,"include"
"579","23.06.22",13:37:57,786441188,"test","2_66","prime_negative",2,69,0,718,"include"
"580","23.06.22",13:37:57,786441188,"test","2_67","prime_negative",3,38,1,789,"include"
"581","23.06.22",13:37:57,786441188,"test","2_68","prime_positive",3,65,0,878,"include"
"582","23.06.22",13:37:57,786441188,"test","2_69","prime_negative",3,43,1,1222,"include"
"583","23.06.22",13:37:57,786441188,"test","2_70","prime_negative",2,48,0,834,"include"
"584","23.06.22",13:37:57,786441188,"test","2_71","prime_negative",4,33,1,710,"include"
"585","23.06.22",13:37:57,786441188,"test","2_72","prime_negative",1,35,1,839,"include"
"586","23.06.22",13:37:57,786441188,"test","2_73","prime_negative",1,59,0,678,"include"
"587","23.06.22",12:42:40,510787584,"test","2_2","prime_positive",2,6,0,951,"include"
"588","23.06.22",12:42:40,510787584,"test","2_3","prime_negative",1,8,0,497,"include"
"589","23.06.22",12:42:40,510787584,"test","2_4","prime_positive",3,60,0,433,"include"
"590","23.06.22",12:42:40,510787584,"test","2_5","prime_positive",1,46,0,319,"include"
"591","23.06.22",12:42:40,510787584,"test","2_6","prime_positive",2,9,0,426,"include"
"592","23.06.22",12:42:40,510787584,"test","2_7","prime_negative",2,64,0,300,"include"
"593","23.06.22",12:42:40,510787584,"test","2_8","prime_negative",4,16,0,142,"include"
"594","23.06.22",12:42:40,510787584,"test","2_9","prime_negative",4,58,0,204,"include"
"595","23.06.22",12:42:40,510787584,"test","2_10","prime_negative",3,31,0,159,"include"
"596","23.06.22",12:42:40,510787584,"test","2_11","prime_positive",3,36,0,239,"include"
"597","23.06.22",12:42:40,510787584,"test","2_12","prime_positive",1,44,1,145,"include"
"598","23.06.22",12:42:40,510787584,"test","2_13","prime_negative",2,54,1,255,"include"
"599","23.06.22",12:42:40,510787584,"test","2_14","prime_positive",4,59,1,389,"include"
"600","23.06.22",12:42:40,510787584,"test","2_15","prime_positive",3,4,1,199,"include"
"601","23.06.22",12:42:40,510787584,"test","2_16","prime_positive",2,10,1,191,"include"
"602","23.06.22",12:42:40,510787584,"test","2_17","prime_positive",4,39,0,598,"include"
"603","23.06.22",12:42:40,510787584,"test","2_18","prime_positive",1,38,0,393,"include"
"604","23.06.22",12:42:40,510787584,"test","2_19","prime_positive",4,27,0,341,"include"
"605","23.06.22",12:42:40,510787584,"test","2_20","prime_negative",1,71,0,319,"include"
"606","23.06.22",12:42:40,510787584,"test","2_21","prime_negative",3,72,0,314,"include"
"607","23.06.22",12:42:40,510787584,"test","2_22","prime_positive",2,35,0,413,"include"
"608","23.06.22",12:42:40,510787584,"test","2_23","prime_negative",2,41,0,297,"include"
"609","23.06.22",12:42:40,510787584,"test","2_24","prime_positive",1,56,0,373,"include"
"610","23.06.22",12:42:40,510787584,"test","2_25","prime_positive",3,50,1,453,"include"
"611","23.06.22",12:42:40,510787584,"test","2_26","prime_positive",3,53,1,434,"include"
"612","23.06.22",12:42:40,510787584,"test","2_27","prime_negative",4,17,1,341,"include"
"613","23.06.22",12:42:40,510787584,"test","2_28","prime_negative",1,13,1,234,"include"
"614","23.06.22",12:42:40,510787584,"test","2_29","prime_negative",4,3,0,399,"include"
"615","23.06.22",12:42:40,510787584,"test","2_30","prime_positive",2,63,0,477,"include"
"616","23.06.22",12:42:40,510787584,"test","2_31","prime_negative",2,23,0,399,"include"
"617","23.06.22",12:42:40,510787584,"test","2_32","prime_negative",1,51,1,301,"include"
"618","23.06.22",12:42:40,510787584,"test","2_33","prime_negative",3,30,0,201,"include"
"619","23.06.22",12:42:40,510787584,"test","2_34","prime_positive",1,57,1,84,"include"
"620","23.06.22",12:42:40,510787584,"test","2_35","prime_positive",4,18,0,118,"include"
"621","23.06.22",12:42:40,510787584,"test","2_36","prime_negative",3,14,0,144,"include"
"622","23.06.22",12:42:40,510787584,"test","2_37","prime_positive",1,21,0,335,"include"
"623","23.06.22",12:42:40,510787584,"test","2_38","prime_negative",4,65,1,346,"include"
"624","23.06.22",12:42:40,510787584,"test","2_39","prime_positive",3,15,0,513,"include"
"625","23.06.22",12:42:40,510787584,"test","2_40","prime_negative",1,69,0,481,"include"
"626","23.06.22",12:42:40,510787584,"test","2_41","prime_positive",4,52,1,221,"include"
"627","23.06.22",12:42:40,510787584,"test","2_42","prime_positive",2,1,0,191,"include"
"628","23.06.22",12:42:40,510787584,"test","2_43","prime_positive",1,48,0,495,"include"
"629","23.06.22",12:42:40,510787584,"test","2_44","prime_positive",2,62,1,432,"include"
"630","23.06.22",12:42:40,510787584,"test","2_45","prime_negative",2,19,0,383,"include"
"631","23.06.22",12:42:40,510787584,"test","2_46","prime_positive",3,25,1,256,"include"
"632","23.06.22",12:42:40,510787584,"test","2_47","prime_positive",4,28,0,123,"include"
"633","23.06.22",12:42:40,510787584,"test","2_48","prime_negative",1,67,1,250,"include"
"634","23.06.22",12:42:40,510787584,"test","2_49","prime_positive",1,68,0,157,"include"
"635","23.06.22",12:42:40,510787584,"test","2_50","prime_negative",3,34,1,222,"include"
"636","23.06.22",12:42:40,510787584,"test","2_51","prime_negative",4,7,0,175,"include"
"637","23.06.22",12:42:40,510787584,"test","2_52","prime_negative",2,2,1,251,"include"
"638","23.06.22",12:42:40,510787584,"test","2_53","prime_negative",4,22,0,270,"include"
"639","23.06.22",12:42:40,510787584,"test","2_54","prime_negative",3,37,0,129,"include"
"640","23.06.22",12:42:40,510787584,"test","2_55","prime_negative",2,42,1,206,"include"
"641","23.06.22",12:42:40,510787584,"test","2_56","prime_positive",2,49,0,565,"include"
"642","23.06.22",12:42:40,510787584,"test","2_57","prime_negative",1,45,0,517,"include"
"643","23.06.22",12:42:40,510787584,"test","2_58","prime_negative",3,43,0,242,"include"
"644","23.06.22",12:42:40,510787584,"test","2_59","prime_positive",4,40,0,208,"include"
"645","23.06.22",12:42:40,510787584,"test","2_60","prime_negative",4,47,0,287,"include"
"646","23.06.22",12:42:40,510787584,"test","2_61","prime_positive",3,61,0,296,"include"
"647","23.06.22",12:42:40,510787584,"test","2_62","prime_negative",2,33,0,450,"include"
"648","23.06.22",12:42:40,510787584,"test","2_63","prime_positive",1,20,0,415,"include"
"649","23.06.22",12:42:40,510787584,"test","2_64","prime_positive",3,44,0,307,"include"
"650","23.06.22",12:42:40,510787584,"test","2_65","prime_negative",1,49,0,226,"include"
"651","23.06.22",12:42:40,510787584,"test","2_66","prime_negative",3,8,0,167,"include"
"652","23.06.22",12:42:40,510787584,"test","2_67","prime_negative",2,11,0,306,"include"
"653","23.06.22",12:42:40,510787584,"test","2_68","prime_negative",4,65,0,141,"include"
"654","23.06.22",12:42:40,510787584,"test","2_69","prime_positive",4,33,0,103,"include"
"655","23.06.22",12:42:40,510787584,"test","2_70","prime_negative",1,23,0,307,"include"
"656","23.06.22",12:42:40,510787584,"test","2_71","prime_negative",4,56,0,297,"include"
"657","23.06.22",12:42:40,510787584,"test","2_72","prime_positive",2,41,0,143,"include"
"658","23.06.22",12:42:40,510787584,"test","2_73","prime_positive",4,16,0,276,"include"
"659","23.06.22",12:40:44,684265529,"test","2_2","prime_negative",3,10,1,1679,"include"
"660","23.06.22",12:40:44,684265529,"test","2_3","prime_positive",1,25,0,1287,"include"
"661","23.06.22",12:40:44,684265529,"test","2_4","prime_positive",2,15,1,2953,"include"
"662","23.06.22",12:40:44,684265529,"test","2_5","prime_negative",2,51,0,1788,"include"
"663","23.06.22",12:40:44,684265529,"test","2_6","prime_negative",1,33,0,515,"include"
"664","23.06.22",12:40:44,684265529,"test","2_7","prime_positive",4,14,1,442,"include"
"665","23.06.22",12:40:44,684265529,"test","2_8","prime_positive",1,68,1,302,"include"
"666","23.06.22",12:40:44,684265529,"test","2_9","prime_negative",3,6,0,444,"include"
"667","23.06.22",12:40:44,684265529,"test","2_10","prime_negative",4,55,1,805,"include"
"668","23.06.22",12:40:44,684265529,"test","2_11","prime_positive",3,5,1,303,"include"
"669","23.06.22",12:40:44,684265529,"test","2_12","prime_positive",2,53,1,1309,"include"
"670","23.06.22",12:40:44,684265529,"test","2_13","prime_negative",2,69,1,843,"include"
"671","23.06.22",12:40:44,684265529,"test","2_14","prime_negative",1,59,1,452,"include"
"672","23.06.22",12:40:44,684265529,"test","2_15","prime_negative",1,43,1,1457,"include"
"673","23.06.22",12:40:44,684265529,"test","2_16","prime_positive",4,71,1,824,"include"
"674","23.06.22",12:40:44,684265529,"test","2_17","prime_positive",2,46,1,1316,"include"
"675","23.06.22",12:40:44,684265529,"test","2_18","prime_positive",1,26,1,2254,"include"
"676","23.06.22",12:40:44,684265529,"test","2_19","prime_negative",4,31,0,490,"include"
"677","23.06.22",12:40:44,684265529,"test","2_20","prime_negative",2,2,1,687,"include"
"678","23.06.22",12:40:44,684265529,"test","2_21","prime_positive",4,48,1,530,"include"
"679","23.06.22",12:40:44,684265529,"test","2_22","prime_positive",3,38,1,674,"include"
"680","23.06.22",12:40:44,684265529,"test","2_23","prime_negative",3,19,0,1223,"include"
"681","23.06.22",12:40:44,684265529,"test","2_24","prime_positive",3,67,1,646,"include"
"682","23.06.22",12:40:44,684265529,"test","2_25","prime_negative",3,27,0,145,"include"
"683","23.06.22",12:40:44,684265529,"test","2_26","prime_positive",1,34,1,296,"include"
"684","23.06.22",12:40:44,684265529,"test","2_27","prime_negative",2,42,0,1072,"include"
"685","23.06.22",12:40:44,684265529,"test","2_28","prime_positive",2,24,1,418,"include"
"686","23.06.22",12:40:44,684265529,"test","2_29","prime_positive",4,60,1,165,"include"
"687","23.06.22",12:40:44,684265529,"test","2_30","prime_negative",4,16,1,749,"include"
"688","23.06.22",12:40:44,684265529,"test","2_31","prime_negative",1,58,0,285,"include"
"689","23.06.22",12:40:44,684265529,"test","2_32","prime_negative",4,7,1,711,"include"
"690","23.06.22",12:40:44,684265529,"test","2_33","prime_positive",2,50,0,940,"include"
"691","23.06.22",12:40:44,684265529,"test","2_34","prime_negative",1,72,1,487,"include"
"692","23.06.22",12:40:44,684265529,"test","2_35","prime_positive",3,22,1,544,"include"
"693","23.06.22",12:40:44,684265529,"test","2_36","prime_negative",2,3,0,197,"include"
"694","23.06.22",12:40:44,684265529,"test","2_37","prime_positive",1,21,1,368,"include"
"695","23.06.22",12:40:44,684265529,"test","2_38","prime_positive",4,70,0,900,"include"
"696","23.06.22",12:40:44,684265529,"test","2_39","prime_positive",4,35,0,157,"include"
"697","23.06.22",12:40:44,684265529,"test","2_40","prime_negative",3,30,0,643,"include"
"698","23.06.22",12:40:44,684265529,"test","2_41","prime_positive",1,9,1,246,"include"
"699","23.06.22",12:40:44,684265529,"test","2_42","prime_positive",3,56,1,2170,"include"
"700","23.06.22",12:40:44,684265529,"test","2_43","prime_positive",2,54,0,785,"include"
"701","23.06.22",12:40:44,684265529,"test","2_44","prime_negative",4,12,1,1534,"include"
"702","23.06.22",12:40:44,684265529,"test","2_45","prime_negative",1,62,1,682,"include"
"703","23.06.22",12:40:44,684265529,"test","2_46","prime_positive",2,32,0,567,"include"
"704","23.06.22",12:40:44,684265529,"test","2_47","prime_positive",4,41,0,1670,"include"
"705","23.06.22",12:40:44,684265529,"test","2_48","prime_positive",1,57,0,769,"include"
"706","23.06.22",12:40:44,684265529,"test","2_49","prime_positive",3,47,0,404,"include"
"707","23.06.22",12:40:44,684265529,"test","2_50","prime_positive",3,66,1,554,"include"
"708","23.06.22",12:40:44,684265529,"test","2_51","prime_negative",3,64,1,297,"include"
"709","23.06.22",12:40:44,684265529,"test","2_52","prime_positive",1,28,0,254,"include"
"710","23.06.22",12:40:44,684265529,"test","2_53","prime_negative",2,8,0,101,"include"
"711","23.06.22",12:40:44,684265529,"test","2_54","prime_negative",1,63,1,438,"include"
"712","23.06.22",12:40:44,684265529,"test","2_55","prime_negative",2,23,1,506,"include"
"713","23.06.22",12:40:44,684265529,"test","2_56","prime_positive",2,39,0,247,"include"
"714","23.06.22",12:40:44,684265529,"test","2_57","prime_positive",4,1,1,1431,"include"
"715","23.06.22",12:40:44,684265529,"test","2_58","prime_negative",4,65,1,107,"include"
"716","23.06.22",12:40:44,684265529,"test","2_59","prime_negative",3,44,0,842,"include"
"717","23.06.22",12:40:44,684265529,"test","2_60","prime_negative",4,37,1,429,"include"
"718","23.06.22",12:40:44,684265529,"test","2_61","prime_negative",3,49,0,395,"include"
"719","23.06.22",12:40:44,684265529,"test","2_62","prime_negative",2,13,0,652,"include"
"720","23.06.22",12:40:44,684265529,"test","2_63","prime_positive",2,52,1,576,"include"
"721","23.06.22",12:40:44,684265529,"test","2_64","prime_negative",1,47,0,413,"include"
"722","23.06.22",12:40:44,684265529,"test","2_65","prime_negative",2,19,1,237,"include"
"723","23.06.22",12:40:44,684265529,"test","2_66","prime_positive",4,11,1,165,"include"
"724","23.06.22",12:40:44,684265529,"test","2_67","prime_positive",1,23,0,639,"include"
"725","23.06.22",12:40:44,684265529,"test","2_68","prime_negative",1,43,1,1424,"include"
"726","23.06.22",12:40:44,684265529,"test","2_69","prime_positive",3,28,1,725,"include"
"727","23.06.22",12:40:44,684265529,"test","2_70","prime_negative",4,39,1,853,"include"
"728","23.06.22",12:40:44,684265529,"test","2_71","prime_negative",3,24,1,717,"include"
"729","23.06.22",12:40:44,684265529,"test","2_72","prime_negative",3,65,0,403,"include"
"730","23.06.22",12:40:44,684265529,"test","2_73","prime_positive",1,30,0,464,"include"
"731","23.06.22",04:40:53,47022865,"test","2_2","prime_negative",4,6,1,1131,"include"
"732","23.06.22",04:40:53,47022865,"test","2_3","prime_positive",1,41,1,979,"include"
"733","23.06.22",04:40:53,47022865,"test","2_4","prime_negative",1,11,1,1456,"include"
"734","23.06.22",04:40:53,47022865,"test","2_5","prime_negative",2,4,1,966,"include"
"735","23.06.22",04:40:53,47022865,"test","2_6","prime_negative",4,48,0,1041,"include"
"736","23.06.22",04:40:53,47022865,"test","2_7","prime_negative",1,61,0,907,"include"
"737","23.06.22",04:40:53,47022865,"test","2_8","prime_positive",3,57,0,1194,"include"
"738","23.06.22",04:40:53,47022865,"test","2_9","prime_positive",2,42,1,764,"include"
"739","23.06.22",04:40:53,47022865,"test","2_10","prime_positive",4,45,1,1378,"include"
"740","23.06.22",04:40:53,47022865,"test","2_11","prime_negative",3,32,1,1628,"include"
"741","23.06.22",04:40:53,47022865,"test","2_12","prime_negative",2,36,1,829,"include"
"742","23.06.22",04:40:53,47022865,"test","2_13","prime_positive",3,49,1,735,"include"
"743","23.06.22",04:40:53,47022865,"test","2_14","prime_negative",4,70,0,452,"include"
"744","23.06.22",04:40:53,47022865,"test","2_15","prime_positive",2,64,0,1034,"include"
"745","23.06.22",04:40:53,47022865,"test","2_16","prime_positive",1,16,1,659,"include"
"746","23.06.22",04:40:53,47022865,"test","2_17","prime_positive",1,26,1,499,"include"
"747","23.06.22",04:40:53,47022865,"test","2_18","prime_positive",4,60,0,1059,"include"
"748","23.06.22",04:40:53,47022865,"test","2_19","prime_negative",1,3,1,1067,"include"
"749","23.06.22",04:40:53,47022865,"test","2_20","prime_negative",2,67,0,1657,"include"
"750","23.06.22",04:40:53,47022865,"test","2_21","prime_positive",2,5,1,743,"include"
"751","23.06.22",04:40:53,47022865,"test","2_22","prime_negative",3,66,1,591,"include"
"752","23.06.22",04:40:53,47022865,"test","2_23","prime_negative",3,24,1,974,"include"
"753","23.06.22",04:40:53,47022865,"test","2_24","prime_positive",3,7,0,785,"include"
"754","23.06.22",04:40:53,47022865,"test","2_25","prime_negative",4,50,0,1020,"include"
"755","23.06.22",04:40:53,47022865,"test","2_26","prime_negative",2,65,1,1447,"include"
"756","23.06.22",04:40:53,47022865,"test","2_27","prime_negative",1,8,1,797,"include"
"757","23.06.22",04:40:53,47022865,"test","2_28","prime_positive",1,13,1,678,"include"
"758","23.06.22",04:40:53,47022865,"test","2_29","prime_negative",1,63,0,709,"include"
"759","23.06.22",04:40:53,47022865,"test","2_30","prime_positive",3,1,1,653,"include"
"760","23.06.22",04:40:53,47022865,"test","2_31","prime_positive",4,56,1,770,"include"
"761","23.06.22",04:40:53,47022865,"test","2_32","prime_negative",2,58,1,905,"include"
"762","23.06.22",04:40:53,47022865,"test","2_33","prime_positive",2,72,1,949,"include"
"763","23.06.22",04:40:53,47022865,"test","2_34","prime_positive",3,51,1,992,"include"
"764","23.06.22",04:40:53,47022865,"test","2_35","prime_positive",4,40,0,850,"include"
"765","23.06.22",04:40:53,47022865,"test","2_36","prime_positive",1,35,0,1404,"include"
"766","23.06.22",04:40:53,47022865,"test","2_37","prime_positive",2,28,1,1204,"include"
"767","23.06.22",04:40:53,47022865,"test","2_38","prime_negative",3,2,1,1490,"include"
"768","23.06.22",04:40:53,47022865,"test","2_39","prime_negative",4,9,1,1034,"include"
"769","23.06.22",04:40:53,47022865,"test","2_40","prime_negative",1,39,1,772,"include"
"770","23.06.22",04:40:53,47022865,"test","2_41","prime_positive",1,53,0,648,"include"
"771","23.06.22",04:40:53,47022865,"test","2_42","prime_negative",4,38,1,1020,"include"
"772","23.06.22",04:40:53,47022865,"test","2_43","prime_positive",3,46,1,783,"include"
"773","23.06.22",04:40:53,47022865,"test","2_44","prime_positive",2,31,0,606,"include"
"774","23.06.22",04:40:53,47022865,"test","2_45","prime_positive",4,52,0,633,"include"
"775","23.06.22",04:40:53,47022865,"test","2_46","prime_positive",3,55,1,2770,"include"
"776","23.06.22",04:40:53,47022865,"test","2_47","prime_negative",3,54,1,825,"include"
"777","23.06.22",04:40:53,47022865,"test","2_48","prime_negative",2,71,0,1663,"include"
"778","23.06.22",04:40:53,47022865,"test","2_49","prime_negative",1,25,1,2159,"include"
"779","23.06.22",04:40:53,47022865,"test","2_50","prime_positive",2,15,1,763,"include"
"780","23.06.22",04:40:53,47022865,"test","2_51","prime_positive",4,47,1,776,"include"
"781","23.06.22",04:40:53,47022865,"test","2_52","prime_negative",3,17,1,741,"include"
"782","23.06.22",04:40:53,47022865,"test","2_53","prime_positive",1,68,1,869,"include"
"783","23.06.22",04:40:53,47022865,"test","2_54","prime_negative",4,10,0,736,"include"
"784","23.06.22",04:40:53,47022865,"test","2_55","prime_positive",4,14,0,893,"include"
"785","23.06.22",04:40:53,47022865,"test","2_56","prime_negative",2,34,0,1033,"include"
"786","23.06.22",04:40:53,47022865,"test","2_57","prime_negative",3,23,1,775,"include"
"787","23.06.22",04:40:53,47022865,"test","2_58","prime_positive",2,44,0,854,"include"
"788","23.06.22",04:40:53,47022865,"test","2_59","prime_negative",1,37,1,640,"include"
"789","23.06.22",04:40:53,47022865,"test","2_60","prime_negative",4,27,1,999,"include"
"790","23.06.22",04:40:53,47022865,"test","2_61","prime_negative",2,18,0,701,"include"
"791","23.06.22",04:40:53,47022865,"test","2_62","prime_negative",2,30,0,872,"include"
"792","23.06.22",04:40:53,47022865,"test","2_63","prime_positive",1,21,0,587,"include"
"793","23.06.22",04:40:53,47022865,"test","2_64","prime_positive",3,28,1,543,"include"
"794","23.06.22",04:40:53,47022865,"test","2_65","prime_negative",4,34,0,536,"include"
"795","23.06.22",04:40:53,47022865,"test","2_66","prime_negative",3,23,1,1209,"include"
"796","23.06.22",04:40:53,47022865,"test","2_67","prime_positive",4,20,1,747,"include"
"797","23.06.22",04:40:53,47022865,"test","2_68","prime_negative",1,10,1,845,"include"
"798","23.06.22",04:40:53,47022865,"test","2_69","prime_positive",1,50,1,665,"include"
"799","23.06.22",04:40:53,47022865,"test","2_70","prime_positive",3,39,1,556,"include"
"800","23.06.22",04:40:53,47022865,"test","2_71","prime_negative",1,38,1,666,"include"
"801","23.06.22",04:40:53,47022865,"test","2_72","prime_positive",2,12,0,827,"include"
"802","23.06.22",04:40:53,47022865,"test","2_73","prime_positive",4,70,0,989,"include"
"803","23.06.22",07:41:46,199802590,"test","2_2","prime_positive",3,28,1,931,"include"
"804","23.06.22",07:41:46,199802590,"test","2_3","prime_negative",2,53,1,988,"include"
"805","23.06.22",07:41:46,199802590,"test","2_4","prime_positive",4,26,1,762,"include"
"806","23.06.22",07:41:46,199802590,"test","2_5","prime_negative",3,59,0,1114,"include"
"807","23.06.22",07:41:46,199802590,"test","2_6","prime_positive",2,61,0,883,"include"
"808","23.06.22",07:41:46,199802590,"test","2_7","prime_negative",4,46,0,854,"include"
"809","23.06.22",07:41:46,199802590,"test","2_8","prime_negative",4,41,1,865,"include"
"810","23.06.22",07:41:46,199802590,"test","2_9","prime_positive",4,44,1,996,"include"
"811","23.06.22",07:41:46,199802590,"test","2_10","prime_negative",2,32,1,706,"include"
"812","23.06.22",07:41:46,199802590,"test","2_11","prime_negative",3,48,0,212,"include"
"813","23.06.22",07:41:46,199802590,"test","2_12","prime_positive",1,3,1,649,"include"
"814","23.06.22",07:41:46,199802590,"test","2_13","prime_negative",1,4,1,645,"include"
"815","23.06.22",07:41:46,199802590,"test","2_14","prime_positive",3,35,1,593,"include"
"816","23.06.22",07:41:46,199802590,"test","2_15","prime_negative",1,42,1,511,"include"
"817","23.06.22",07:41:46,199802590,"test","2_16","prime_positive",2,24,1,472,"include"
"818","23.06.22",07:41:46,199802590,"test","2_17","prime_negative",4,63,0,380,"include"
"819","23.06.22",07:41:46,199802590,"test","2_18","prime_negative",3,62,1,235,"include"
"820","23.06.22",07:41:46,199802590,"test","2_19","prime_negative",2,14,1,320,"include"
"821","23.06.22",07:41:46,199802590,"test","2_20","prime_positive",1,52,1,377,"include"
"822","23.06.22",07:41:46,199802590,"test","2_21","prime_positive",4,58,1,320,"include"
"823","23.06.22",07:41:46,199802590,"test","2_22","prime_positive",2,25,1,330,"include"
"824","23.06.22",07:41:46,199802590,"test","2_23","prime_negative",2,13,1,258,"include"
"825","23.06.22",07:41:46,199802590,"test","2_24","prime_positive",3,7,1,414,"include"
"826","23.06.22",07:41:46,199802590,"test","2_25","prime_positive",3,22,0,1036,"include"
"827","23.06.22",07:41:46,199802590,"test","2_26","prime_negative",3,56,1,200,"include"
"828","23.06.22",07:41:46,199802590,"test","2_27","prime_negative",4,33,1,430,"include"
"829","23.06.22",07:41:46,199802590,"test","2_28","prime_positive",1,9,1,523,"include"
"830","23.06.22",07:41:46,199802590,"test","2_29","prime_positive",4,16,1,340,"include"
"831","23.06.22",07:41:46,199802590,"test","2_30","prime_positive",2,11,1,404,"include"
"832","23.06.22",07:41:46,199802590,"test","2_31","prime_positive",1,36,1,410,"include"
"833","23.06.22",07:41:46,199802590,"test","2_32","prime_negative",1,2,1,440,"include"
"834","23.06.22",07:41:46,199802590,"test","2_33","prime_negative",2,64,1,468,"include"
"835","23.06.22",07:41:46,199802590,"test","2_34","prime_negative",4,70,1,312,"include"
"836","23.06.22",07:41:46,199802590,"test","2_35","prime_negative",1,21,1,457,"include"
"837","23.06.22",07:41:46,199802590,"test","2_36","prime_negative",3,20,1,389,"include"
"838","23.06.22",07:41:46,199802590,"test","2_37","prime_negative",3,67,1,636,"include"
"839","23.06.22",07:41:46,199802590,"test","2_38","prime_negative",4,66,1,376,"include"
"840","23.06.22",07:41:46,199802590,"test","2_39","prime_positive",4,15,1,399,"include"
"841","23.06.22",07:41:46,199802590,"test","2_40","prime_negative",2,50,0,309,"include"
"842","23.06.22",07:41:46,199802590,"test","2_41","prime_positive",2,55,1,223,"include"
"843","23.06.22",07:41:46,199802590,"test","2_42","prime_negative",1,60,1,404,"include"
"844","23.06.22",07:41:46,199802590,"test","2_43","prime_positive",3,6,1,1138,"include"
"845","23.06.22",07:41:46,199802590,"test","2_44","prime_negative",2,30,1,658,"include"
"846","23.06.22",07:41:46,199802590,"test","2_45","prime_negative",3,5,0,430,"include"
"847","23.06.22",07:41:46,199802590,"test","2_46","prime_positive",2,17,1,235,"include"
"848","23.06.22",07:41:46,199802590,"test","2_47","prime_positive",1,68,1,423,"include"
"849","23.06.22",07:41:46,199802590,"test","2_48","prime_negative",4,51,1,285,"include"
"850","23.06.22",07:41:46,199802590,"test","2_49","prime_negative",1,18,1,311,"include"
"851","23.06.22",07:41:46,199802590,"test","2_50","prime_positive",3,54,1,321,"include"
"852","23.06.22",07:41:46,199802590,"test","2_51","prime_negative",2,69,1,377,"include"
"853","23.06.22",07:41:46,199802590,"test","2_52","prime_positive",4,1,1,504,"include"
"854","23.06.22",07:41:46,199802590,"test","2_53","prime_negative",1,12,1,481,"include"
"855","23.06.22",07:41:46,199802590,"test","2_54","prime_negative",3,72,1,508,"include"
"856","23.06.22",07:41:46,199802590,"test","2_55","prime_negative",4,38,1,421,"include"
"857","23.06.22",07:41:46,199802590,"test","2_56","prime_positive",4,45,1,466,"include"
"858","23.06.22",07:41:46,199802590,"test","2_57","prime_positive",2,71,1,461,"include"
"859","23.06.22",07:41:46,199802590,"test","2_58","prime_positive",3,39,0,505,"include"
"860","23.06.22",07:41:46,199802590,"test","2_59","prime_positive",1,43,1,435,"include"
"861","23.06.22",07:41:46,199802590,"test","2_60","prime_positive",1,19,1,879,"include"
"862","23.06.22",07:41:46,199802590,"test","2_61","prime_negative",2,8,1,530,"include"
"863","23.06.22",07:41:46,199802590,"test","2_62","prime_positive",2,34,1,419,"include"
"864","23.06.22",07:41:46,199802590,"test","2_63","prime_negative",3,10,1,431,"include"
"865","23.06.22",07:41:46,199802590,"test","2_64","prime_positive",3,72,1,564,"include"
"866","23.06.22",07:41:46,199802590,"test","2_65","prime_negative",1,10,1,363,"include"
"867","23.06.22",07:41:46,199802590,"test","2_66","prime_negative",4,8,1,387,"include"
"868","23.06.22",07:41:46,199802590,"test","2_67","prime_positive",4,11,0,585,"include"
"869","23.06.22",07:41:46,199802590,"test","2_68","prime_positive",2,13,1,423,"include"
"870","23.06.22",07:41:46,199802590,"test","2_69","prime_positive",4,61,1,413,"include"
"871","23.06.22",07:41:46,199802590,"test","2_70","prime_positive",1,28,1,602,"include"
"872","23.06.22",07:41:46,199802590,"test","2_71","prime_positive",3,17,1,424,"include"
"873","23.06.22",07:41:46,199802590,"test","2_72","prime_positive",2,19,1,821,"include"
"874","23.06.22",07:41:46,199802590,"test","2_73","prime_negative",1,2,1,1386,"include"
"875","23.06.22",12:45:17,295696078,"test","2_2","prime_negative",3,34,1,1417,"include"
"876","23.06.22",12:45:17,295696078,"test","2_3","prime_negative",2,58,1,1312,"include"
"877","23.06.22",12:45:17,295696078,"test","2_4","prime_negative",4,19,1,709,"include"
"878","23.06.22",12:45:17,295696078,"test","2_5","prime_positive",3,15,1,876,"include"
"879","23.06.22",12:45:17,295696078,"test","2_6","prime_negative",1,57,1,760,"include"
"880","23.06.22",12:45:17,295696078,"test","2_7","prime_positive",4,38,1,686,"include"
"881","23.06.22",12:45:17,295696078,"test","2_8","prime_negative",3,29,1,811,"include"
"882","23.06.22",12:45:17,295696078,"test","2_9","prime_negative",2,46,1,529,"include"
"883","23.06.22",12:45:17,295696078,"test","2_10","prime_negative",4,69,1,773,"include"
"884","23.06.22",12:45:17,295696078,"test","2_11","prime_negative",1,61,1,717,"include"
"885","23.06.22",12:45:17,295696078,"test","2_12","prime_negative",2,72,0,1264,"include"
"886","23.06.22",12:45:17,295696078,"test","2_13","prime_positive",1,31,1,381,"include"
"887","23.06.22",12:45:17,295696078,"test","2_14","prime_negative",3,70,1,615,"include"
"888","23.06.22",12:45:17,295696078,"test","2_15","prime_negative",4,65,1,541,"include"
"889","23.06.22",12:45:17,295696078,"test","2_16","prime_positive",3,3,1,695,"include"
"890","23.06.22",12:45:17,295696078,"test","2_17","prime_negative",4,50,1,649,"include"
"891","23.06.22",12:45:17,295696078,"test","2_18","prime_positive",4,68,1,638,"include"
"892","23.06.22",12:45:17,295696078,"test","2_19","prime_positive",1,7,1,631,"include"
"893","23.06.22",12:45:17,295696078,"test","2_20","prime_positive",2,47,1,499,"include"
"894","23.06.22",12:45:17,295696078,"test","2_21","prime_positive",1,22,1,534,"include"
"895","23.06.22",12:45:17,295696078,"test","2_22","prime_positive",2,41,1,1031,"include"
"896","23.06.22",12:45:17,295696078,"test","2_23","prime_positive",4,28,1,868,"include"
"897","23.06.22",12:45:17,295696078,"test","2_24","prime_negative",2,42,1,707,"include"
"898","23.06.22",12:45:17,295696078,"test","2_25","prime_positive",3,48,1,848,"include"
"899","23.06.22",12:45:17,295696078,"test","2_26","prime_positive",3,39,1,754,"include"
"900","23.06.22",12:45:17,295696078,"test","2_27","prime_negative",3,11,1,842,"include"
"901","23.06.22",12:45:17,295696078,"test","2_28","prime_positive",1,44,0,1768,"include"
"902","23.06.22",12:45:17,295696078,"test","2_29","prime_positive",4,30,1,950,"include"
"903","23.06.22",12:45:17,295696078,"test","2_30","prime_negative",1,45,1,902,"include"
"904","23.06.22",12:45:17,295696078,"test","2_31","prime_negative",1,32,1,698,"include"
"905","23.06.22",12:45:17,295696078,"test","2_32","prime_negative",3,71,1,668,"include"
"906","23.06.22",12:45:17,295696078,"test","2_33","prime_positive",2,27,1,786,"include"
"907","23.06.22",12:45:17,295696078,"test","2_34","prime_negative",4,6,1,617,"include"
"908","23.06.22",12:45:17,295696078,"test","2_35","prime_positive",4,16,0,896,"include"
"909","23.06.22",12:45:17,295696078,"test","2_36","prime_positive",1,54,1,686,"include"
"910","23.06.22",12:45:17,295696078,"test","2_37","prime_positive",2,17,1,571,"include"
"911","23.06.22",12:45:17,295696078,"test","2_38","prime_positive",3,14,0,739,"include"
"912","23.06.22",12:45:17,295696078,"test","2_39","prime_negative",2,43,0,1003,"include"
"913","23.06.22",12:45:17,295696078,"test","2_40","prime_negative",4,66,1,626,"include"
"914","23.06.22",12:45:17,295696078,"test","2_41","prime_positive",1,5,1,499,"include"
"915","23.06.22",12:45:17,295696078,"test","2_42","prime_negative",2,33,1,1629,"include"
"916","23.06.22",12:45:17,295696078,"test","2_43","prime_negative",3,53,1,730,"include"
"917","23.06.22",12:45:17,295696078,"test","2_44","prime_positive",3,1,1,505,"include"
"918","23.06.22",12:45:17,295696078,"test","2_45","prime_positive",4,64,1,611,"include"
"919","23.06.22",12:45:17,295696078,"test","2_46","prime_negative",1,36,1,625,"include"
"920","23.06.22",12:45:17,295696078,"test","2_47","prime_positive",2,26,1,555,"include"
"921","23.06.22",12:45:17,295696078,"test","2_48","prime_negative",1,13,0,1075,"include"
"922","23.06.22",12:45:17,295696078,"test","2_49","prime_positive",3,2,1,713,"include"
"923","23.06.22",12:45:17,295696078,"test","2_50","prime_positive",1,40,1,719,"include"
"924","23.06.22",12:45:17,295696078,"test","2_51","prime_positive",2,56,0,1154,"include"
"925","23.06.22",12:45:17,295696078,"test","2_52","prime_positive",4,37,1,555,"include"
"926","23.06.22",12:45:17,295696078,"test","2_53","prime_positive",3,4,1,670,"include"
"927","23.06.22",12:45:17,295696078,"test","2_54","prime_negative",2,60,1,569,"include"
"928","23.06.22",12:45:17,295696078,"test","2_55","prime_negative",4,12,0,933,"include"
"929","23.06.22",12:45:17,295696078,"test","2_56","prime_negative",3,23,0,886,"include"
"930","23.06.22",12:45:17,295696078,"test","2_57","prime_positive",4,24,1,606,"include"
"931","23.06.22",12:45:17,295696078,"test","2_58","prime_positive",1,49,1,687,"include"
"932","23.06.22",12:45:17,295696078,"test","2_59","prime_positive",2,59,0,663,"include"
"933","23.06.22",12:45:17,295696078,"test","2_60","prime_negative",3,18,0,587,"include"
"934","23.06.22",12:45:17,295696078,"test","2_61","prime_negative",2,52,1,450,"include"
"935","23.06.22",12:45:17,295696078,"test","2_62","prime_positive",2,67,0,752,"include"
"936","23.06.22",12:45:17,295696078,"test","2_63","prime_positive",1,20,1,570,"include"
"937","23.06.22",12:45:17,295696078,"test","2_64","prime_negative",4,53,1,524,"include"
"938","23.06.22",12:45:17,295696078,"test","2_65","prime_positive",3,35,1,887,"include"
"939","23.06.22",12:45:17,295696078,"test","2_66","prime_positive",4,13,1,828,"include"
"940","23.06.22",12:45:17,295696078,"test","2_67","prime_negative",1,28,0,596,"include"
"941","23.06.22",12:45:17,295696078,"test","2_68","prime_negative",2,66,1,864,"include"
"942","23.06.22",12:45:17,295696078,"test","2_69","prime_negative",1,48,1,600,"include"
"943","23.06.22",12:45:17,295696078,"test","2_70","prime_negative",3,17,0,2795,"include"
"944","23.06.22",12:45:17,295696078,"test","2_71","prime_negative",4,19,0,1102,"include"
"945","23.06.22",12:45:17,295696078,"test","2_72","prime_negative",4,37,1,650,"include"
"946","23.06.22",12:45:17,295696078,"test","2_73","prime_positive",3,71,1,418,"include"
"947","23.06.22",12:46:32,32034696,"test","2_2","prime_negative",4,65,1,1055,"include"
"948","23.06.22",12:46:32,32034696,"test","2_3","prime_negative",1,8,1,911,"include"
"949","23.06.22",12:46:32,32034696,"test","2_4","prime_negative",2,29,0,1239,"include"
"950","23.06.22",12:46:32,32034696,"test","2_5","prime_positive",2,26,1,767,"include"
"951","23.06.22",12:46:32,32034696,"test","2_6","prime_positive",4,66,1,711,"include"
"952","23.06.22",12:46:32,32034696,"test","2_7","prime_positive",3,60,1,816,"include"
"953","23.06.22",12:46:32,32034696,"test","2_8","prime_positive",4,21,1,719,"include"
"954","23.06.22",12:46:32,32034696,"test","2_9","prime_positive",3,18,1,839,"include"
"955","23.06.22",12:46:32,32034696,"test","2_10","prime_positive",2,52,1,783,"include"
"956","23.06.22",12:46:32,32034696,"test","2_11","prime_positive",1,41,0,783,"include"
"957","23.06.22",12:46:32,32034696,"test","2_12","prime_negative",3,46,1,895,"include"
"958","23.06.22",12:46:32,32034696,"test","2_13","prime_negative",1,11,1,696,"include"
"959","23.06.22",12:46:32,32034696,"test","2_14","prime_negative",2,59,0,943,"include"
"960","23.06.22",12:46:32,32034696,"test","2_15","prime_positive",1,22,1,879,"include"
"961","23.06.22",12:46:32,32034696,"test","2_16","prime_negative",4,38,1,775,"include"
"962","23.06.22",12:46:32,32034696,"test","2_17","prime_negative",3,27,1,744,"include"
"963","23.06.22",12:46:32,32034696,"test","2_18","prime_positive",4,19,0,856,"include"
"964","23.06.22",12:46:32,32034696,"test","2_19","prime_positive",2,36,1,832,"include"
"965","23.06.22",12:46:32,32034696,"test","2_20","prime_negative",1,13,0,1145,"include"
"966","23.06.22",12:46:32,32034696,"test","2_21","prime_negative",2,71,0,1408,"include"
"967","23.06.22",12:46:32,32034696,"test","2_22","prime_positive",3,15,1,775,"include"
"968","23.06.22",12:46:32,32034696,"test","2_23","prime_positive",2,5,1,696,"include"
"969","23.06.22",12:46:32,32034696,"test","2_24","prime_positive",1,1,0,944,"include"
"970","23.06.22",12:46:32,32034696,"test","2_25","prime_positive",3,31,1,671,"include"
"971","23.06.22",12:46:32,32034696,"test","2_26","prime_negative",4,6,0,1383,"include"
"972","23.06.22",12:46:32,32034696,"test","2_27","prime_positive",4,25,1,760,"include"
"973","23.06.22",12:46:32,32034696,"test","2_28","prime_negative",4,28,1,647,"include"
"974","23.06.22",12:46:32,32034696,"test","2_29","prime_negative",2,4,0,878,"include"
"975","23.06.22",12:46:32,32034696,"test","2_30","prime_positive",2,49,0,849,"include"
"976","23.06.22",12:46:32,32034696,"test","2_31","prime_negative",3,14,1,695,"include"
"977","23.06.22",12:46:32,32034696,"test","2_32","prime_negative",1,62,0,1040,"include"
"978","23.06.22",12:46:32,32034696,"test","2_33","prime_positive",4,16,1,912,"include"
"979","23.06.22",12:46:32,32034696,"test","2_34","prime_positive",3,24,1,816,"include"
"980","23.06.22",12:46:32,32034696,"test","2_35","prime_negative",1,56,1,680,"include"
"981","23.06.22",12:46:32,32034696,"test","2_36","prime_negative",3,67,1,600,"include"
"982","23.06.22",12:46:32,32034696,"test","2_37","prime_positive",1,70,1,1080,"include"
"983","23.06.22",12:46:32,32034696,"test","2_38","prime_negative",4,7,1,711,"include"
"984","23.06.22",12:46:32,32034696,"test","2_39","prime_negative",2,12,0,1337,"include"
"985","23.06.22",12:46:32,32034696,"test","2_40","prime_negative",1,51,0,999,"include"
"986","23.06.22",12:46:32,32034696,"test","2_41","prime_positive",1,2,1,608,"include"
"987","23.06.22",12:46:32,32034696,"test","2_42","prime_negative",3,23,1,648,"include"
"988","23.06.22",12:46:32,32034696,"test","2_43","prime_positive",2,45,1,640,"include"
"989","23.06.22",12:46:32,32034696,"test","2_44","prime_negative",2,44,0,1696,"include"
"990","23.06.22",12:46:32,32034696,"test","2_45","prime_negative",4,9,1,664,"include"
"991","23.06.22",12:46:32,32034696,"test","2_46","prime_positive",4,3,1,703,"include"
"992","23.06.22",12:46:32,32034696,"test","2_47","prime_negative",2,53,0,848,"include"
"993","23.06.22",12:46:32,32034696,"test","2_48","prime_negative",3,10,0,960,"include"
"994","23.06.22",12:46:32,32034696,"test","2_49","prime_negative",4,50,0,1176,"include"
"995","23.06.22",12:46:32,32034696,"test","2_50","prime_positive",3,61,0,880,"include"
"996","23.06.22",12:46:32,32034696,"test","2_51","prime_positive",1,20,0,879,"include"
"997","23.06.22",12:46:32,32034696,"test","2_52","prime_positive",4,30,0,976,"include"
"998","23.06.22",12:46:32,32034696,"test","2_53","prime_negative",1,68,1,1160,"include"
"999","23.06.22",12:46:32,32034696,"test","2_54","prime_positive",2,17,1,648,"include"
"1000","23.06.22",12:46:32,32034696,"test","2_55","prime_negative",4,42,0,887,"include"
"1001","23.06.22",12:46:32,32034696,"test","2_56","prime_negative",2,55,0,889,"include"
"1002","23.06.22",12:46:32,32034696,"test","2_57","prime_negative",1,32,0,928,"include"
"1003","23.06.22",12:46:32,32034696,"test","2_58","prime_positive",3,63,1,783,"include"
"1004","23.06.22",12:46:32,32034696,"test","2_59","prime_negative",3,48,1,888,"include"
"1005","23.06.22",12:46:32,32034696,"test","2_60","prime_positive",2,72,1,600,"include"
"1006","23.06.22",12:46:32,32034696,"test","2_61","prime_positive",3,54,1,679,"include"
"1007","23.06.22",12:46:32,32034696,"test","2_62","prime_positive",1,35,1,559,"include"
"1008","23.06.22",12:46:32,32034696,"test","2_63","prime_positive",4,57,0,975,"include"
"1009","23.06.22",12:46:32,32034696,"test","2_64","prime_negative",4,34,0,1664,"include"
"1010","23.06.22",12:46:32,32034696,"test","2_65","prime_positive",3,11,1,648,"include"
"1011","23.06.22",12:46:32,32034696,"test","2_66","prime_positive",2,71,1,608,"include"
"1012","23.06.22",12:46:32,32034696,"test","2_67","prime_negative",1,70,1,743,"include"
"1013","23.06.22",12:46:32,32034696,"test","2_68","prime_negative",3,28,1,847,"include"
"1014","23.06.22",12:46:32,32034696,"test","2_69","prime_positive",4,68,1,768,"include"
"1015","23.06.22",12:46:32,32034696,"test","2_70","prime_positive",1,44,1,776,"include"
"1016","23.06.22",12:46:32,32034696,"test","2_71","prime_negative",2,2,1,881,"include"
"1017","23.06.22",12:46:32,32034696,"test","2_72","prime_negative",1,12,1,672,"include"
"1018","23.06.22",12:46:32,32034696,"test","2_73","prime_positive",3,72,1,711,"include"
"1019","23.06.22",12:48:22,609227927,"test","2_2","prime_positive",4,36,1,953,"include"
"1020","23.06.22",12:48:22,609227927,"test","2_3","prime_negative",2,29,0,598,"include"
"1021","23.06.22",12:48:22,609227927,"test","2_4","prime_negative",1,8,0,472,"include"
"1022","23.06.22",12:48:22,609227927,"test","2_5","prime_positive",2,32,1,748,"include"
"1023","23.06.22",12:48:22,609227927,"test","2_6","prime_negative",4,65,0,697,"include"
"1024","23.06.22",12:48:22,609227927,"test","2_7","prime_positive",1,62,1,390,"include"
"1025","23.06.22",12:48:22,609227927,"test","2_8","prime_positive",2,64,1,764,"include"
"1026","23.06.22",12:48:22,609227927,"test","2_9","prime_positive",1,42,1,872,"include"
"1027","23.06.22",12:48:22,609227927,"test","2_10","prime_positive",3,22,1,364,"include"
"1028","23.06.22",12:48:22,609227927,"test","2_11","prime_positive",4,57,1,364,"include"
"1029","23.06.22",12:48:22,609227927,"test","2_12","prime_negative",1,19,0,230,"include"
"1030","23.06.22",12:48:22,609227927,"test","2_13","prime_negative",4,31,0,380,"include"
"1031","23.06.22",12:48:22,609227927,"test","2_14","prime_negative",2,51,0,253,"include"
"1032","23.06.22",12:48:22,609227927,"test","2_15","prime_negative",3,21,0,187,"include"
"1033","23.06.22",12:48:22,609227927,"test","2_16","prime_negative",3,48,0,304,"include"
"1034","23.06.22",12:48:22,609227927,"test","2_17","prime_positive",3,4,1,322,"include"
"1035","23.06.22",12:48:22,609227927,"test","2_18","prime_negative",4,68,0,689,"include"
"1036","23.06.22",12:48:22,609227927,"test","2_19","prime_negative",2,24,0,355,"include"
"1037","23.06.22",12:48:22,609227927,"test","2_20","prime_positive",1,1,1,229,"include"
"1038","23.06.22",12:48:22,609227927,"test","2_21","prime_negative",1,72,0,281,"include"
"1039","23.06.22",12:48:22,609227927,"test","2_22","prime_positive",4,12,1,297,"include"
"1040","23.06.22",12:48:22,609227927,"test","2_23","prime_positive",2,27,1,589,"include"
"1041","23.06.22",12:48:22,609227927,"test","2_24","prime_positive",4,71,1,1014,"include"
"1042","23.06.22",12:48:22,609227927,"test","2_25","prime_negative",2,38,0,855,"include"
"1043","23.06.22",12:48:22,609227927,"test","2_26","prime_positive",3,45,1,373,"include"
"1044","23.06.22",12:48:22,609227927,"test","2_27","prime_negative",4,63,0,1181,"include"
"1045","23.06.22",12:48:22,609227927,"test","2_28","prime_positive",2,35,1,355,"include"
"1046","23.06.22",12:48:22,609227927,"test","2_29","prime_negative",1,43,0,762,"include"
"1047","23.06.22",12:48:22,609227927,"test","2_30","prime_negative",3,53,0,378,"include"
"1048","23.06.22",12:48:22,609227927,"test","2_31","prime_positive",1,2,1,95,"include"
"1049","23.06.22",12:48:22,609227927,"test","2_32","prime_negative",4,40,0,95,"include"
"1050","23.06.22",12:48:22,609227927,"test","2_33","prime_positive",2,52,1,11,"include"
"1051","23.06.22",12:48:22,609227927,"test","2_34","prime_positive",4,39,1,389,"include"
"1052","23.06.22",12:48:22,609227927,"test","2_35","prime_positive",3,20,1,347,"include"
"1053","23.06.22",12:48:22,609227927,"test","2_36","prime_positive",1,50,1,263,"include"
"1054","23.06.22",12:48:22,609227927,"test","2_37","prime_negative",1,6,0,954,"include"
"1055","23.06.22",12:48:22,609227927,"test","2_38","prime_positive",1,28,1,238,"include"
"1056","23.06.22",12:48:22,609227927,"test","2_39","prime_positive",3,67,1,697,"include"
"1057","23.06.22",12:48:22,609227927,"test","2_40","prime_positive",4,47,1,306,"include"
"1058","23.06.22",12:48:22,609227927,"test","2_41","prime_positive",2,59,1,138,"include"
"1059","23.06.22",12:48:22,609227927,"test","2_42","prime_positive",2,60,1,79,"include"
"1060","23.06.22",12:48:22,609227927,"test","2_43","prime_positive",1,41,1,196,"include"
"1061","23.06.22",12:48:22,609227927,"test","2_44","prime_negative",2,5,0,321,"include"
"1062","23.06.22",12:48:22,609227927,"test","2_45","prime_positive",3,37,1,688,"include"
"1063","23.06.22",12:48:22,609227927,"test","2_46","prime_negative",3,13,0,355,"include"
"1064","23.06.22",12:48:22,609227927,"test","2_47","prime_positive",4,34,1,279,"include"
"1065","23.06.22",12:48:22,609227927,"test","2_48","prime_negative",4,46,0,480,"include"
"1066","23.06.22",12:48:22,609227927,"test","2_49","prime_negative",3,23,0,322,"include"
"1067","23.06.22",12:48:22,609227927,"test","2_50","prime_positive",3,70,1,332,"include"
"1068","23.06.22",12:48:22,609227927,"test","2_51","prime_negative",1,54,0,213,"include"
"1069","23.06.22",12:48:22,609227927,"test","2_52","prime_positive",2,10,1,247,"include"
"1070","23.06.22",12:48:22,609227927,"test","2_53","prime_negative",2,11,0,197,"include"
"1071","23.06.22",12:48:22,609227927,"test","2_54","prime_negative",1,33,0,589,"include"
"1072","23.06.22",12:48:22,609227927,"test","2_55","prime_negative",3,25,0,347,"include"
"1073","23.06.22",12:48:22,609227927,"test","2_56","prime_positive",4,44,1,447,"include"
"1074","23.06.22",12:48:22,609227927,"test","2_57","prime_negative",2,69,0,980,"include"
"1075","23.06.22",12:48:22,609227927,"test","2_58","prime_positive",1,7,1,456,"include"
"1076","23.06.22",12:48:22,609227927,"test","2_59","prime_positive",3,17,1,455,"include"
"1077","23.06.22",12:48:22,609227927,"test","2_60","prime_negative",4,30,0,172,"include"
"1078","23.06.22",12:48:22,609227927,"test","2_61","prime_negative",4,66,0,203,"include"
"1079","23.06.22",12:48:22,609227927,"test","2_62","prime_negative",2,9,0,187,"include"
"1080","23.06.22",12:48:22,609227927,"test","2_63","prime_positive",4,49,1,146,"include"
"1081","23.06.22",12:48:22,609227927,"test","2_64","prime_negative",3,28,1,146,"include"
"1082","23.06.22",12:48:22,609227927,"test","2_65","prime_negative",1,21,0,387,"include"
"1083","23.06.22",12:48:22,609227927,"test","2_66","prime_positive",2,50,1,322,"include"
"1084","23.06.22",12:48:22,609227927,"test","2_67","prime_negative",4,59,0,407,"include"
"1085","23.06.22",12:48:22,609227927,"test","2_68","prime_negative",1,34,0,306,"include"
"1086","23.06.22",12:48:22,609227927,"test","2_69","prime_negative",3,25,0,221,"include"
"1087","23.06.22",12:48:22,609227927,"test","2_70","prime_positive",1,29,1,347,"include"
"1088","23.06.22",12:48:22,609227927,"test","2_71","prime_negative",2,70,0,263,"include"
"1089","23.06.22",12:48:22,609227927,"test","2_72","prime_negative",2,53,0,314,"include"
"1090","23.06.22",12:48:22,609227927,"test","2_73","prime_positive",3,62,1,315,"include"
"1091","23.06.22",12:44:39,494447594,"test","2_2","prime_positive",4,18,0,1756,"include"
"1092","23.06.22",12:44:39,494447594,"test","2_3","prime_negative",2,65,0,1935,"include"
"1093","23.06.22",12:44:39,494447594,"test","2_4","prime_positive",3,62,0,16652,"include"
"1094","23.06.22",12:44:39,494447594,"test","2_5","prime_positive",2,20,1,4526,"include"
"1095","23.06.22",12:44:39,494447594,"test","2_6","prime_positive",1,56,1,3189,"include"
"1096","23.06.22",12:44:39,494447594,"test","2_7","prime_positive",4,26,1,12737,"include"
"1097","23.06.22",12:44:39,494447594,"test","2_8","prime_negative",4,53,1,1451,"include"
"1098","23.06.22",12:44:39,494447594,"test","2_9","prime_negative",1,72,1,1892,"include"
"1099","23.06.22",12:44:39,494447594,"test","2_10","prime_positive",3,59,1,1835,"include"
"1100","23.06.22",12:44:39,494447594,"test","2_11","prime_negative",2,38,0,5077,"include"
"1101","23.06.22",12:44:39,494447594,"test","2_12","prime_positive",2,7,1,1885,"include"
"1102","23.06.22",12:44:39,494447594,"test","2_13","prime_negative",1,27,1,2725,"include"
"1103","23.06.22",12:44:39,494447594,"test","2_14","prime_positive",4,37,0,1583,"include"
"1104","23.06.22",12:44:39,494447594,"test","2_15","prime_positive",3,12,1,1606,"include"
"1105","23.06.22",12:44:39,494447594,"test","2_16","prime_negative",4,2,1,1926,"include"
"1106","23.06.22",12:44:39,494447594,"test","2_17","prime_negative",3,36,0,5406,"include"
"1107","23.06.22",12:44:39,494447594,"test","2_18","prime_negative",1,39,0,2167,"include"
"1108","23.06.22",12:44:39,494447594,"test","2_19","prime_negative",3,28,0,1386,"include"
"1109","23.06.22",12:44:39,494447594,"test","2_20","prime_negative",2,23,0,1193,"include"
"1110","23.06.22",12:44:39,494447594,"test","2_21","prime_positive",2,69,1,1437,"include"
"1111","23.06.22",12:44:39,494447594,"test","2_22","prime_positive",1,31,1,1758,"include"
"1112","23.06.22",12:44:39,494447594,"test","2_23","prime_negative",4,41,1,3819,"include"
"1113","23.06.22",12:44:39,494447594,"test","2_24","prime_positive",4,43,1,1447,"include"
"1114","23.06.22",12:44:39,494447594,"test","2_25","prime_positive",1,61,1,847,"include"
"1115","23.06.22",12:44:39,494447594,"test","2_26","prime_positive",3,48,1,1187,"include"
"1116","23.06.22",12:44:39,494447594,"test","2_27","prime_positive",2,64,1,2343,"include"
"1117","23.06.22",12:44:39,494447594,"test","2_28","prime_positive",3,5,1,1164,"include"
"1118","23.06.22",12:44:39,494447594,"test","2_29","prime_positive",2,29,1,1239,"include"
"1119","23.06.22",12:44:39,494447594,"test","2_30","prime_positive",1,3,1,875,"include"
"1120","23.06.22",12:44:39,494447594,"test","2_31","prime_negative",1,63,0,1730,"include"
"1121","23.06.22",12:44:39,494447594,"test","2_32","prime_negative",4,6,0,1312,"include"
"1122","23.06.22",12:44:39,494447594,"test","2_33","prime_negative",2,17,0,1009,"include"
"1123","23.06.22",12:44:39,494447594,"test","2_34","prime_positive",4,24,1,2293,"include"
"1124","23.06.22",12:44:39,494447594,"test","2_35","prime_positive",1,67,1,842,"include"
"1125","23.06.22",12:44:39,494447594,"test","2_36","prime_negative",3,55,0,1114,"include"
"1126","23.06.22",12:44:39,494447594,"test","2_37","prime_positive",3,51,1,1914,"include"
"1127","23.06.22",12:44:39,494447594,"test","2_38","prime_negative",4,25,0,1296,"include"
"1128","23.06.22",12:44:39,494447594,"test","2_39","prime_positive",2,70,1,1079,"include"
"1129","23.06.22",12:44:39,494447594,"test","2_40","prime_negative",1,52,0,1080,"include"
"1130","23.06.22",12:44:39,494447594,"test","2_41","prime_negative",2,47,0,2811,"include"
"1131","23.06.22",12:44:39,494447594,"test","2_42","prime_positive",4,21,1,1389,"include"
"1132","23.06.22",12:44:39,494447594,"test","2_43","prime_positive",4,45,1,1321,"include"
"1133","23.06.22",12:44:39,494447594,"test","2_44","prime_negative",3,58,0,1057,"include"
"1134","23.06.22",12:44:39,494447594,"test","2_45","prime_negative",2,60,0,1330,"include"
"1135","23.06.22",12:44:39,494447594,"test","2_46","prime_negative",4,4,1,1249,"include"
"1136","23.06.22",12:44:39,494447594,"test","2_47","prime_positive",2,32,1,996,"include"
"1137","23.06.22",12:44:39,494447594,"test","2_48","prime_negative",1,68,0,1150,"include"
"1138","23.06.22",12:44:39,494447594,"test","2_49","prime_negative",3,15,0,1146,"include"
